Folder: Pyrolysis_BESKID/Experiments/TGA/TUBS/mcc (part 2)

File: mcc_powder_1mg_dyn30_r1.txt
Sample Weight (mg):	1.02
Heating Rate (C/s):	0.5
Combustor Temp (C):	900
N2 Flow Rate (cc/min):	80
O2 Flow Rate (cc/min):	20
Time (s)	Temperature (C)	N2 flow rate (cc/min)	O2 flow rate (cc/min)	Flow Rate (cc/min)	Oxygen (%)	HRR (W/g)	Heating rate (C/s)
0.000	88.496	80.003	20.009	100.335	20.017	14.870	0.015
8.000	88.180	80.005	20.009	100.314	20.012	16.509	0.003
16.000	88.124	80.003	20.010	100.310	20.008	17.584	0.017
24.000	88.183	80.005	20.009	100.338	20.008	17.521	-0.016
32.000	88.421	80.007	20.010	100.368	19.999	20.448	0.041
40.000	88.982	80.004	20.010	100.442	19.994	22.022	0.085
48.001	89.911	80.004	20.010	100.504	19.983	25.458	0.127
56.000	91.204	80.005	20.009	100.538	19.975	27.636	0.166
64.001	92.989	80.004	20.009	100.557	19.974	28.012	0.272
72.001	95.216	80.005	20.009	100.547	19.969	29.508	0.315
80.000	97.734	80.005	20.009	100.558	19.962	31.892	0.344
88.000	100.635	80.004	20.009	100.585	19.963	31.618	0.403
96.000	103.916	80.004	20.009	100.602	19.961	32.007	0.465
104.000	107.518	80.004	20.009	100.586	19.960	32.509	0.450
112.000	111.477	80.005	20.009	100.623	19.960	32.409	0.537
120.000	115.616	80.003	20.009	100.599	19.961	32.006	0.512
128.000	120.034	80.004	20.009	100.590	19.966	30.666	0.567
136.000	124.599	80.004	20.009	100.542	19.966	30.469	0.570
144.000	129.191	80.006	20.009	100.529	19.968	30.054	0.605
152.001	133.870	80.005	20.010	100.546	19.970	29.229	0.594
160.000	138.518	80.005	20.009	100.530	19.974	28.162	0.607
168.000	143.099	80.004	20.009	100.487	19.975	27.721	0.592
176.000	147.700	80.005	20.009	100.485	19.974	28.155	0.544
184.000	152.258	80.005	20.009	100.483	19.973	28.371	0.591
192.000	156.698	80.004	20.009	100.507	19.970	29.315	0.588
200.000	161.151	80.004	20.008	100.481	19.969	29.678	0.553
208.000	165.484	80.005	20.010	100.497	19.961	32.167	0.511
216.000	169.926	80.005	20.009	100.427	19.953	34.402	0.555
224.000	174.126	80.005	20.009	100.408	19.953	34.621	0.465
232.000	178.370	80.005	20.009	100.427	19.952	34.709	0.527
240.000	182.612	80.004	20.009	100.398	19.956	33.539	0.599
248.000	186.750	80.006	20.009	100.439	19.971	28.994	0.480
256.000	190.806	80.004	20.009	100.426	19.980	26.112	0.434
264.000	194.952	80.004	20.010	100.446	19.991	22.694	0.514
272.000	199.028	80.005	20.009	100.426	19.995	21.738	0.515
280.000	203.067	80.004	20.009	100.435	19.991	22.883	0.503
288.001	207.115	80.003	20.009	100.415	19.996	21.307	0.486
296.000	211.097	80.004	20.009	100.391	19.995	21.677	0.483
304.000	215.140	80.003	20.009	100.378	19.997	20.968	0.509
312.000	219.123	80.004	20.009	100.398	19.998	20.723	0.486
320.000	223.142	80.004	20.009	100.412	19.997	20.975	0.471
328.000	227.155	80.003	20.009	100.411	20.000	19.918	0.484
336.001	231.184	80.004	20.010	100.393	20.005	18.367	0.502
344.000	235.149	80.003	20.009	100.414	20.001	19.720	0.508
352.000	239.222	80.005	20.009	100.391	19.998	20.551	0.513
360.000	243.284	80.005	20.009	100.408	20.003	19.017	0.586
368.000	247.145	80.004	20.009	100.406	20.006	18.093	0.504
376.000	251.223	80.004	20.009	100.366	20.005	18.503	0.475
384.000	255.239	80.004	20.009	100.342	20.005	18.538	0.507
392.000	259.236	80.004	20.009	100.372	20.003	19.204	0.483
400.000	263.215	80.005	20.009	100.372	20.004	18.974	0.520
408.000	267.246	80.006	20.009	100.385	19.998	20.798	0.520
416.000	271.332	80.004	20.009	100.374	19.992	22.420	0.537
424.000	275.295	80.004	20.009	100.369	19.987	23.955	0.478
432.000	279.347	80.006	20.009	100.374	19.984	24.983	0.482
440.000	283.375	80.004	20.009	100.366	19.973	28.364	0.500
448.000	287.500	80.004	20.009	100.375	19.969	29.654	0.542
456.001	291.561	80.005	20.010	100.365	19.963	31.300	0.520
464.000	295.526	80.004	20.010	100.386	19.959	32.513	0.512
472.000	299.560	80.005	20.010	100.379	19.964	31.173	0.513
480.000	303.532	80.004	20.010	100.357	19.952	34.696	0.499
488.000	307.641	80.005	20.010	100.371	19.946	36.674	0.573
496.000	311.483	80.005	20.010	100.359	19.940	38.424	0.491
504.000	315.419	80.004	20.010	100.332	19.924	43.376	0.473
512.000	319.491	80.003	20.009	100.364	19.901	50.402	0.511
520.000	323.469	80.004	20.010	100.346	19.869	60.161	0.490
528.000	327.511	80.005	20.010	100.312	19.833	71.198	0.520
536.000	331.481	80.005	20.010	100.312	19.795	83.087	0.497
544.000	335.427	80.005	20.010	100.304	19.745	98.348	0.474
552.000	339.434	80.005	20.010	100.306	19.691	114.912	0.572
560.000	343.382	80.004	20.010	100.302	19.645	128.966	0.481
568.000	347.355	80.005	20.010	100.302	19.599	143.108	0.515
576.000	351.299	80.004	20.010	100.307	19.561	154.830	0.519
584.000	355.173	80.004	20.010	100.342	19.518	168.071	0.423
592.000	359.131	80.003	20.011	100.341	19.475	181.146	0.504
600.000	363.100	80.005	20.010	100.327	19.439	192.081	0.473
608.000	367.145	80.004	20.010	100.287	19.455	187.448	0.526
616.000	371.158	80.005	20.010	100.359	19.470	182.686	0.520
624.000	375.170	80.004	20.009	100.412	19.496	174.682	0.500
632.000	379.235	80.004	20.009	100.412	19.524	166.282	0.519
640.000	383.316	80.005	20.009	100.424	19.576	150.335	0.492
648.000	387.235	80.005	20.009	100.427	19.633	132.770	0.534
656.000	391.246	80.004	20.009	100.457	19.701	111.915	0.489
664.000	395.224	80.005	20.009	100.484	19.768	91.397	0.489
672.000	399.193	80.005	20.009	100.510	19.825	73.703	0.492
680.000	403.193	80.005	20.009	100.460	19.873	59.088	0.488
688.000	407.069	80.005	20.009	100.438	19.917	45.652	0.482
696.000	411.036	80.004	20.009	100.453	19.952	34.737	0.492
704.000	414.972	80.004	20.009	100.412	19.976	27.367	0.492
712.001	418.908	80.005	20.009	100.381	19.990	23.248	0.514
720.000	422.883	80.006	20.009	100.369	19.999	20.219	0.523
728.000	426.742	80.006	20.009	100.366	20.013	16.125	0.476
736.000	430.699	80.004	20.009	100.377	20.018	14.413	0.440
744.000	434.733	80.004	20.009	100.378	20.015	15.379	0.538
752.000	438.731	80.003	20.009	100.348	20.017	14.904	0.517
760.000	442.741	80.003	20.009	100.320	20.014	15.784	0.493
768.000	446.767	80.004	20.009	100.343	20.018	14.663	0.501
776.000	450.732	80.004	20.010	100.331	20.017	14.885	0.506
784.000	454.749	80.004	20.009	100.344	20.020	13.891	0.487
792.000	458.701	80.005	20.009	100.337	20.016	15.145	0.491
800.000	462.661	80.004	20.008	100.339	20.020	13.968	0.504
808.000	466.591	80.004	20.010	100.298	20.017	14.965	0.471
816.000	470.644	80.004	20.009	100.330	20.020	13.808	0.531
824.000	474.566	80.005	20.009	100.334	20.021	13.453	0.521
832.000	478.566	80.002	20.008	100.351	20.021	13.491	0.513
840.000	482.551	80.004	20.009	100.358	20.020	13.906	0.515
848.000	486.521	80.006	20.009	100.358	20.023	12.880	0.513
856.000	490.496	80.003	20.009	100.348	20.022	13.253	0.497
864.000	494.509	80.003	20.009	100.335	20.021	13.497	0.505
872.000	498.453	80.003	20.008	100.337	20.022	13.281	0.497
880.000	502.400	80.005	20.009	100.319	20.016	15.248	0.515
888.001	506.326	80.004	20.008	100.350	20.025	12.389	0.482
896.000	510.258	80.003	20.008	100.361	20.022	13.437	0.461
904.000	514.318	80.004	20.008	100.349	20.021	13.642	0.445
912.000	518.341	80.006	20.009	100.363	20.023	13.071	0.453
920.000	522.301	80.005	20.009	100.339	20.018	14.431	0.470
928.000	526.331	80.005	20.009	100.343	20.016	15.018	0.519
936.000	530.266	80.005	20.008	100.330	20.019	14.233	0.460
944.000	534.254	80.004	20.008	100.356	20.017	14.899	0.472
952.000	538.202	80.005	20.009	100.356	20.020	13.977	0.495
960.000	542.118	80.004	20.008	100.359	20.018	14.440	0.449
968.000	546.050	80.004	20.009	100.364	20.022	13.249	0.504
976.000	549.878	80.004	20.009	100.385	20.020	13.808	0.508
984.000	553.790	80.005	20.009	100.349	20.021	13.476	0.537
992.000	557.713	80.004	20.009	100.359	20.019	14.323	0.479
1000.000	561.772	80.004	20.008	100.359	20.018	14.632	0.535
1008.000	565.719	80.003	20.009	100.405	20.019	14.063	0.511
1016.000	569.795	80.004	20.009	100.352	20.018	14.627	0.521
1024.000	573.792	80.004	20.009	100.336	20.017	14.752	0.491
1032.000	577.736	80.003	20.009	100.367	20.016	15.155	0.508
1040.001	581.719	80.004	20.009	100.365	20.013	15.936	0.480
1048.000	585.732	80.004	20.009	100.354	20.016	15.175	0.496
1056.000	589.702	80.004	20.008	100.377	20.016	15.232	0.514
1064.000	593.696	80.006	20.008	100.372	20.015	15.426	0.472
1072.000	597.681	80.004	20.010	100.355	20.017	14.752	0.513
1080.001	601.742	80.006	20.009	100.346	20.013	16.215	0.503
1088.000	605.849	80.004	20.008	100.370	20.015	15.548	0.512
1096.000	609.892	80.005	20.008	100.381	20.015	15.521	0.542
1104.001	613.909	80.005	20.009	100.369	20.013	16.009	0.476
1112.000	617.958	80.004	20.009	100.377	20.016	15.137	0.467
1120.001	621.953	80.004	20.009	100.361	20.015	15.460	0.466
1128.001	625.931	80.005	20.009	100.390	20.012	16.300	0.495
1136.001	629.891	80.005	20.009	100.380	20.011	16.713	0.436
1144.001	633.760	80.005	20.009	100.379	20.010	16.898	0.517
1152.001	637.749	80.005	20.009	100.422	20.009	17.255	0.497
1160.001	641.756	80.003	20.009	100.395	20.011	16.669	0.506
1168.000	645.741	80.004	20.009	100.374	20.008	17.570	0.493
1176.001	649.754	80.005	20.009	100.404	20.010	16.838	0.495
1184.000	653.736	80.005	20.009	100.378	20.000	20.062	0.518
1192.000	657.763	80.004	20.009	100.399	20.012	16.514	0.495
1200.000	661.728	80.005	20.009	100.398	20.007	17.924	0.461
1208.000	665.859	80.005	20.009	100.371	20.009	17.237	0.473
1216.000	669.895	80.005	20.008	100.391	20.003	19.189	0.529
1224.001	673.953	80.004	20.009	100.378	20.005	18.416	0.510
1232.001	677.947	80.004	20.009	100.415	20.015	15.313	0.491
1240.001	681.952	80.005	20.009	100.388	20.006	18.165	0.453
1248.000	686.088	80.005	20.009	100.366	20.002	19.326	0.532
1256.001	690.134	80.006	20.009	100.393	20.003	19.242	0.560
1264.000	694.118	80.005	20.009	100.410	20.004	18.845	0.528
1272.001	698.154	80.005	20.009	100.394	20.001	19.651	0.510
1280.000	702.214	80.004	20.009	100.390	20.000	19.967	0.556
1288.000	706.166	80.004	20.009	100.388	19.999	20.470	0.485
1296.000	710.246	80.004	20.009	100.394	20.004	18.906	0.515
1304.000	714.204	80.005	20.009	100.379	19.998	20.514	0.521
1312.000	718.105	80.005	20.009	100.362	19.995	21.459	0.486
1320.001	721.690	80.005	20.009	100.410	19.998	20.829	0.438
1328.000	725.407	80.006	20.009	100.370	20.001	19.905	0.472
1336.000	729.327	80.005	20.008	100.387	20.003	19.037	0.500
1344.001	733.339	80.004	20.009	100.448	20.005	18.639	0.506
1352.000	737.582	80.004	20.009	100.410	19.991	22.895	0.559
1360.001	741.853	80.005	20.009	100.392	19.990	23.159	0.541
1360.501	742.128	80.005	20.009	100.397	19.989	23.302	0.559

File: mcc_powder_2mg_dyn30_r3.txt
Sample Weight (mg):	1.99
Heating Rate (C/s):	0.5
Combustor Temp (C):	900
N2 Flow Rate (cc/min):	80
O2 Flow Rate (cc/min):	20
Time (s)	Temperature (C)	N2 flow rate (cc/min)	O2 flow rate (cc/min)	Flow Rate (cc/min)	Oxygen (%)	HRR (W/g)	Heating rate (C/s)
0.000	90.066	80.001	20.008	99.898	20.069	1.133	-0.157
8.500	88.956	80.005	20.009	100.334	20.012	10.247	-0.096
17.000	88.121	80.005	20.009	100.358	20.002	11.693	-0.091
25.500	87.558	80.005	20.010	100.394	19.997	12.537	-0.026
34.001	87.408	80.004	20.009	100.350	19.994	12.989	0.018
42.500	87.473	80.004	20.009	100.437	19.983	14.831	0.024
51.000	87.949	80.004	20.009	100.487	19.982	14.938	0.027
59.500	88.907	80.006	20.009	100.464	19.978	15.528	0.160
68.000	90.144	80.004	20.009	100.442	19.973	16.353	0.173
76.500	91.791	80.004	20.009	100.498	19.964	17.787	0.244
85.000	93.919	80.002	20.009	100.552	19.959	18.490	0.279
93.500	96.433	80.005	20.009	100.566	19.951	19.746	0.337
102.000	99.431	80.006	20.009	100.593	19.948	20.284	0.423
110.500	102.813	80.005	20.009	100.590	19.949	20.086	0.408
119.000	106.600	80.004	20.009	100.578	19.946	20.603	0.450
127.500	110.755	80.005	20.009	100.592	19.946	20.666	0.508
136.000	115.106	80.005	20.009	100.582	19.945	20.743	0.541
144.500	119.784	80.004	20.009	100.563	19.942	21.233	0.572
153.000	124.525	80.005	20.009	100.602	19.951	19.880	0.575
161.500	129.428	80.004	20.010	100.544	19.948	20.321	0.622
170.000	134.383	80.003	20.009	100.512	19.946	20.565	0.589
178.500	139.294	80.005	20.009	100.496	19.946	20.630	0.577
187.000	144.174	80.005	20.009	100.478	19.951	19.735	0.600
195.500	149.048	80.004	20.008	100.490	19.939	21.736	0.598
204.000	153.975	80.005	20.009	100.442	19.932	22.805	0.555
212.501	158.564	80.004	20.009	100.412	19.921	24.490	0.547
221.000	163.117	80.006	20.008	100.447	19.905	27.027	0.545
229.500	167.559	80.006	20.009	100.425	19.897	28.279	0.482
238.000	172.019	80.006	20.009	100.406	19.896	28.496	0.554
246.500	176.395	80.003	20.009	100.414	19.905	26.954	0.495
255.000	180.773	80.005	20.009	100.433	19.916	25.310	0.484
263.500	185.093	80.005	20.009	100.438	19.935	22.303	0.488
272.000	189.386	80.005	20.010	100.436	19.946	20.527	0.514
280.500	193.618	80.004	20.009	100.445	19.956	19.078	0.487
289.000	197.961	80.005	20.009	100.424	19.964	17.723	0.568
297.500	202.205	80.006	20.009	100.400	19.969	16.954	0.482
306.000	206.572	80.005	20.009	100.443	19.971	16.617	0.517
314.500	210.868	80.005	20.009	100.406	19.970	16.774	0.463
323.000	215.252	80.006	20.009	100.390	19.969	16.946	0.536
331.500	219.518	80.004	20.009	100.400	19.973	16.274	0.495
340.000	223.801	80.004	20.009	100.407	19.976	15.789	0.482
348.500	228.170	80.006	20.010	100.417	19.980	15.156	0.508
357.000	232.406	80.007	20.009	100.342	19.983	14.724	0.517
365.500	236.634	80.005	20.009	100.409	19.986	14.226	0.517
374.000	240.956	80.005	20.009	100.400	19.982	14.879	0.536
382.500	245.357	80.005	20.009	100.386	19.983	14.782	0.565
391.000	249.619	80.005	20.009	100.399	19.982	14.959	0.498
399.500	253.921	80.005	20.009	100.416	19.979	15.431	0.513
408.000	258.194	80.005	20.009	100.383	19.971	16.577	0.477
416.500	262.489	80.007	20.009	100.353	19.969	16.991	0.475
425.000	266.786	80.004	20.009	100.350	19.957	18.805	0.513
433.500	271.160	80.006	20.009	100.345	19.947	20.460	0.528
442.000	275.329	80.006	20.009	100.350	19.934	22.417	0.484
450.500	279.612	80.005	20.008	100.356	19.920	24.673	0.465
459.000	283.851	80.005	20.009	100.369	19.906	26.798	0.474
467.500	288.145	80.003	20.009	100.336	19.899	27.950	0.495
476.000	292.377	80.005	20.009	100.331	19.888	29.679	0.469
484.500	296.672	80.006	20.009	100.346	19.889	29.510	0.484
493.000	300.908	80.005	20.009	100.340	19.881	30.789	0.529
501.500	305.189	80.005	20.009	100.382	19.865	33.343	0.486
510.000	309.390	80.005	20.009	100.369	19.837	37.743	0.494
518.500	313.608	80.005	20.009	100.346	19.796	44.196	0.524
527.000	317.802	80.006	20.009	100.288	19.744	52.301	0.474
535.500	322.051	80.005	20.009	100.280	19.675	63.219	0.511
544.000	326.289	80.004	20.009	100.280	19.592	76.245	0.501
552.500	330.603	80.006	20.009	100.278	19.500	90.690	0.479
561.000	334.853	80.005	20.009	100.264	19.400	106.277	0.477
569.500	339.089	80.005	20.009	100.280	19.303	121.573	0.461
578.000	343.383	80.005	20.009	100.238	19.217	135.187	0.503
586.500	347.676	80.005	20.009	100.258	19.145	146.637	0.525
595.000	351.962	80.003	20.009	100.306	19.075	157.532	0.502
603.500	356.135	80.005	20.009	100.330	18.992	170.558	0.477
612.000	360.292	80.004	20.009	100.320	18.884	187.332	0.515
620.500	364.564	80.005	20.009	100.266	18.863	191.210	0.484
629.000	368.742	80.005	20.010	100.288	18.958	176.325	0.512
637.500	372.960	80.005	20.009	100.518	19.011	167.938	0.457
646.000	377.328	80.005	20.009	100.482	19.065	159.322	0.511
654.500	381.576	80.005	20.009	100.471	19.146	146.622	0.492
663.000	385.813	80.004	20.009	100.480	19.248	130.626	0.506
671.500	390.018	80.005	20.009	100.522	19.375	110.604	0.478
680.000	394.188	80.004	20.009	100.549	19.498	91.193	0.484
688.500	398.449	80.004	20.009	100.557	19.616	72.600	0.533
697.000	402.645	80.005	20.009	100.578	19.720	56.263	0.519
705.500	406.763	80.004	20.009	100.557	19.808	42.334	0.499
714.000	410.926	80.004	20.009	100.514	19.872	32.309	0.496
722.500	415.145	80.003	20.008	100.481	19.917	25.193	0.505
731.000	419.394	80.005	20.009	100.429	19.953	19.476	0.498
739.500	423.528	80.006	20.009	100.436	19.980	15.219	0.466
748.000	427.697	80.005	20.009	100.400	19.987	14.177	0.500
756.500	431.900	80.005	20.009	100.376	19.994	12.975	0.493
765.000	436.062	80.004	20.008	100.393	20.002	11.772	0.474
773.500	440.289	80.004	20.009	100.357	20.003	11.577	0.482
782.000	444.471	80.004	20.009	100.341	20.008	10.764	0.544
790.500	448.763	80.006	20.008	100.353	20.010	10.421	0.527
799.000	453.105	80.006	20.009	100.342	20.012	10.251	0.498
807.500	457.296	80.006	20.009	100.325	20.011	10.354	0.484
816.000	461.608	80.005	20.009	100.327	20.008	10.783	0.515
824.500	465.841	80.004	20.008	100.329	20.009	10.631	0.527
833.000	470.103	80.004	20.009	100.318	20.009	10.677	0.521
841.500	474.285	80.004	20.009	100.313	20.007	10.932	0.493
850.000	478.610	80.006	20.008	100.313	20.009	10.658	0.511
858.500	482.795	80.005	20.009	100.334	20.007	10.904	0.503
867.000	487.056	80.005	20.009	100.338	20.013	10.073	0.502
875.500	491.293	80.006	20.009	100.319	20.013	9.956	0.506
884.000	495.540	80.006	20.009	100.317	20.015	9.663	0.474
892.500	499.805	80.005	20.009	100.307	20.012	10.109	0.525
901.000	503.959	80.005	20.008	100.303	20.006	11.098	0.472
909.500	508.078	80.005	20.009	100.316	20.005	11.274	0.510
918.000	512.261	80.004	20.008	100.341	20.006	11.047	0.474
926.500	516.483	80.005	20.008	100.344	20.012	10.151	0.474
935.000	520.739	80.005	20.009	100.341	20.015	9.648	0.480
943.500	524.905	80.005	20.009	100.320	20.012	10.229	0.515
952.000	529.117	80.005	20.008	100.341	20.008	10.758	0.509
960.500	533.226	80.005	20.009	100.319	20.008	10.743	0.477
969.000	537.412	80.005	20.009	100.313	20.007	10.924	0.509
977.500	541.732	80.006	20.009	100.324	20.015	9.643	0.562
986.000	545.864	80.005	20.008	100.320	20.008	10.761	0.450
994.500	550.086	80.005	20.009	100.330	20.011	10.306	0.513
1003.000	554.131	80.006	20.009	100.338	20.011	10.311	0.470
1011.500	558.204	80.004	20.009	100.315	20.011	10.319	0.440
1020.000	562.307	80.005	20.009	100.341	20.011	10.320	0.522
1028.500	566.594	80.005	20.009	100.318	20.003	11.586	0.549
1037.000	570.875	80.004	20.009	100.311	20.004	11.394	0.513
1045.500	575.218	80.005	20.009	100.320	20.007	10.917	0.544
1054.001	579.641	80.005	20.009	100.322	20.007	11.013	0.531
1062.501	584.002	80.003	20.009	100.318	20.000	12.041	0.535
1071.000	588.342	80.006	20.009	100.328	20.007	11.007	0.527
1079.500	592.629	80.003	20.008	100.335	20.004	11.456	0.510
1088.001	596.833	80.004	20.009	100.359	20.006	11.167	0.488
1096.500	601.063	80.004	20.008	100.341	20.007	10.905	0.522
1105.000	605.297	80.006	20.009	100.350	20.009	10.599	0.507
1113.501	609.616	80.005	20.008	100.346	20.008	10.766	0.532
1122.000	613.747	80.004	20.008	100.344	20.008	10.853	0.505
1130.500	617.950	80.004	20.009	100.373	20.012	10.190	0.519
1139.000	622.156	80.005	20.009	100.309	20.006	11.133	0.449
1147.500	626.393	80.006	20.009	100.322	20.003	11.547	0.464
1156.001	630.781	80.006	20.008	100.327	19.998	12.388	0.524
1164.501	635.031	80.005	20.008	100.330	19.999	12.227	0.487
1173.000	639.249	80.006	20.009	100.350	20.003	11.560	0.525
1181.500	643.537	80.004	20.009	100.356	20.004	11.391	0.521
1190.001	647.820	80.005	20.009	100.345	20.002	11.750	0.521
1198.500	652.003	80.004	20.009	100.341	20.003	11.603	0.491
1207.001	656.358	80.005	20.009	100.320	20.003	11.610	0.529
1215.501	660.693	80.005	20.009	100.356	20.002	11.781	0.509
1224.000	665.003	80.005	20.009	100.340	20.005	11.298	0.528
1232.500	669.142	80.006	20.009	100.334	20.002	11.781	0.526
1241.000	673.266	80.006	20.008	100.325	20.003	11.561	0.490
1249.500	677.358	80.005	20.008	100.336	19.998	12.314	0.484
1258.000	681.680	80.007	20.009	100.378	20.001	11.839	0.530
1266.500	685.884	80.006	20.008	100.370	20.001	11.916	0.472
1275.000	690.059	80.005	20.009	100.399	20.004	11.438	0.496
1283.500	694.290	80.005	20.009	100.351	20.003	11.564	0.452
1292.000	698.587	80.006	20.009	100.345	19.999	12.220	0.543
1300.500	702.973	80.005	20.008	100.365	20.007	10.963	0.474
1309.000	707.383	80.006	20.009	100.386	20.003	11.527	0.492
1317.500	711.810	80.004	20.009	100.340	19.996	12.672	0.477
1326.000	716.280	80.005	20.009	100.349	19.997	12.558	0.525
1334.500	720.617	80.004	20.008	100.347	20.001	11.918	0.523
1343.000	724.957	80.005	20.009	100.381	20.002	11.783	0.585
1351.500	729.383	80.005	20.009	100.364	19.993	13.199	0.508
1360.000	733.761	80.005	20.009	100.352	19.993	13.093	0.503
1368.500	738.219	80.005	20.008	100.370	19.999	12.144	0.544
1377.000	742.425	80.005	20.008	100.351	19.995	12.917	0.495
1377.500	742.642	80.004	20.009	100.351	19.999	12.303	0.485