Folder: Pyrolysis_BESKID/Experiments/TGA/TUBS/mcc

Note: README.md
# Pyrolysis_BESKID
Preparation of pyrolysis modelling publication.


## Python Scripting

The Python scripts are built on Python version: 3.13.3 (tags/v3.13.3:6280bb5, Apr  8 2025, 14:47:33) [MSC v.1943 64 bit (AMD64)]

Use the `requirements.txt` to build a virtual Python environment. It is located in `GeneralInformation\Python_venv`.

### How to set up a virtual Python environment on Windows

This description assumes you intent to set up a virtual Python environment on Windows, using Powershell. Adjust the paths according to your setup.

From a clean [Python installation](https://www.python.org/downloads/), create a clean virtual environment. This is done by typing the following command into the Powershell terminal: ` C:\Programs\Python\Python313\python.exe -m venv name_of_your_environment`. You can give it a name by changing `name_of_your_environment` to what ever name you like. This will create a directory of the chosen name, containing the necessary files of the environment.

In Powershell, the process needs to be given permission to run the environment, like so:
`Set-ExecutionPolicy Unrestricted -Scope Process`
Set the exception for this process by hitting "Y" (yes). This step needs to be repeated every time you want to run the environment from your console, but is not necessary if you use it just as Jupyter kernel (see below).

Now, you can start the environment. For this, a specific file in the directory needs to be called in Powershell: `C:\Venvs\name_of_your_environment\Scripts\activate`.

The `requirements.txt` can now be used to install specific packages recursively: `pip install -r C:\Pyrolysis_BESKID\GeneralInformation\Python_venv\requirements.txt`.

You can use this virtual environment as kernel for your Jupyter notebooks. It can be installed as follows: `python -m ipykernel install --user --name=name_of_your_environment --display-name "Python (name_of_your_environment)"`.

File: mcc_piece_1mg_dyn30_r1.txt
Sample Weight (mg):	0.99
Heating Rate (C/s):	0.5
Combustor Temp (C):	900
N2 Flow Rate (cc/min):	80
O2 Flow Rate (cc/min):	20
Time (s)	Temperature (C)	N2 flow rate (cc/min)	O2 flow rate (cc/min)	Flow Rate (cc/min)	Oxygen (%)	HRR (W/g)	Heating rate (C/s)
0.000	84.597	80.000	20.008	100.151	20.096	-0.400	0.007
8.000	84.533	80.000	20.008	100.221	20.099	-1.310	-0.039
16.000	84.611	79.999	20.008	100.117	20.096	-0.500	0.062
24.000	84.807	80.000	20.008	100.210	20.099	-1.528	0.026
32.000	85.288	80.001	20.010	100.200	20.095	-0.160	0.067
40.000	85.858	80.000	20.009	100.247	20.082	4.048	0.083
48.001	86.704	80.000	20.008	100.309	20.074	6.513	0.143
56.000	87.959	80.001	20.008	100.335	20.063	9.886	0.167
64.000	89.550	80.002	20.008	100.422	20.047	15.103	0.204
72.000	91.692	80.002	20.008	100.451	20.041	17.017	0.298
80.001	94.370	80.000	20.008	100.509	20.036	18.434	0.339
88.000	97.565	80.001	20.008	100.521	20.036	18.422	0.427
96.000	101.123	80.001	20.008	100.503	20.032	19.672	0.460
104.000	105.107	80.001	20.008	100.480	20.035	18.834	0.534
112.000	109.419	80.002	20.008	100.481	20.040	17.181	0.557
120.000	114.032	80.002	20.008	100.466	20.043	16.294	0.585
128.000	118.802	80.001	20.008	100.443	20.041	16.834	0.562
136.000	123.790	80.001	20.009	100.458	20.050	14.224	0.643
144.000	128.663	80.002	20.008	100.421	20.056	12.347	0.602
152.000	133.705	80.001	20.008	100.399	20.058	11.624	0.647
160.000	138.701	80.002	20.008	100.356	20.067	8.708	0.593
168.000	143.610	80.001	20.008	100.358	20.070	7.738	0.601
176.000	148.359	80.001	20.009	100.365	20.072	7.191	0.546
184.000	153.072	80.001	20.009	100.371	20.076	5.781	0.589
192.000	157.692	80.001	20.009	100.338	20.077	5.432	0.553
200.000	162.200	80.001	20.009	100.324	20.080	4.490	0.601
208.000	166.501	80.003	20.008	100.321	20.078	5.290	0.445
216.000	170.850	80.001	20.008	100.324	20.075	6.078	0.564
224.000	175.069	80.001	20.009	100.297	20.078	5.156	0.500
232.000	179.292	80.001	20.009	100.308	20.076	5.912	0.570
240.000	183.370	80.001	20.009	100.299	20.078	5.291	0.489
248.000	187.475	80.001	20.009	100.310	20.076	5.818	0.485
256.000	191.496	80.002	20.008	100.322	20.077	5.511	0.457
264.000	195.537	80.000	20.009	100.285	20.078	5.177	0.528
272.000	199.531	80.001	20.009	100.277	20.078	5.150	0.501
280.000	203.547	80.002	20.009	100.285	20.079	4.896	0.495
288.000	207.577	80.002	20.009	100.302	20.081	4.281	0.501
296.000	211.539	80.000	20.008	100.321	20.077	5.503	0.471
304.000	215.637	80.003	20.008	100.298	20.081	4.234	0.529
312.000	219.673	80.002	20.008	100.291	20.080	4.548	0.488
320.000	223.760	80.001	20.008	100.277	20.080	4.728	0.508
328.000	227.871	80.003	20.008	100.275	20.081	4.388	0.512
336.000	231.991	80.002	20.008	100.302	20.082	3.847	0.520
344.000	235.991	80.002	20.008	100.299	20.086	2.765	0.481
352.000	240.088	80.002	20.008	100.306	20.087	2.437	0.536
360.000	244.216	80.002	20.008	100.289	20.086	2.611	0.502
368.000	248.280	80.002	20.008	100.293	20.082	3.826	0.521
376.000	252.324	80.002	20.008	100.294	20.082	3.847	0.495
384.000	256.300	80.001	20.009	100.287	20.083	3.707	0.504
392.000	260.337	80.001	20.008	100.281	20.083	3.653	0.547
400.000	264.311	80.001	20.008	100.288	20.079	5.001	0.507
408.000	268.334	80.001	20.008	100.264	20.078	5.175	0.516
416.000	272.298	80.001	20.008	100.269	20.077	5.576	0.497
424.000	276.296	80.002	20.010	100.258	20.076	5.984	0.496
432.000	280.261	80.001	20.009	100.271	20.071	7.379	0.509
440.000	284.295	80.000	20.010	100.284	20.070	7.912	0.524
448.000	288.282	80.000	20.010	100.263	20.063	9.937	0.477
456.000	292.356	80.001	20.009	100.253	20.059	11.338	0.531
464.000	296.366	80.001	20.010	100.259	20.058	11.485	0.495
472.000	300.446	80.001	20.010	100.259	20.056	12.164	0.517
480.000	304.407	80.000	20.010	100.254	20.050	14.152	0.521
488.000	308.471	80.002	20.008	100.240	20.049	14.328	0.519
496.000	312.427	80.001	20.009	100.244	20.044	15.881	0.493
504.000	316.364	80.000	20.008	100.253	20.031	20.182	0.487
512.000	320.327	80.000	20.008	100.259	20.018	24.193	0.475
520.000	324.375	80.001	20.008	100.276	19.981	35.779	0.504
528.000	328.424	80.001	20.009	100.249	19.955	44.140	0.552
536.000	332.344	80.001	20.008	100.278	19.920	55.161	0.479
544.000	336.319	80.001	20.009	100.291	19.860	74.050	0.451
552.000	340.339	80.001	20.009	100.267	19.792	95.621	0.497
560.000	344.258	80.001	20.010	100.259	19.714	120.161	0.484
568.000	348.263	80.001	20.010	100.299	19.628	147.539	0.531
576.000	352.305	80.002	20.009	100.243	19.574	164.708	0.495
584.001	356.274	80.001	20.008	100.280	19.516	182.867	0.479
592.000	360.391	80.001	20.009	100.263	19.468	198.146	0.503
600.000	364.427	80.001	20.009	100.307	19.426	211.267	0.516
608.000	368.491	80.002	20.009	100.280	19.431	209.854	0.489
616.000	372.506	80.002	20.009	100.326	19.444	205.508	0.484
624.000	376.511	80.002	20.009	100.324	19.438	207.470	0.478
632.000	380.428	80.001	20.010	100.212	19.523	180.731	0.508
640.000	384.395	80.002	20.008	100.312	19.632	146.357	0.495
648.000	388.464	80.001	20.009	100.278	19.714	120.365	0.494
656.001	392.521	80.001	20.008	100.265	19.777	100.448	0.481
664.000	396.558	80.001	20.008	100.286	19.841	80.233	0.502
672.001	400.540	80.002	20.008	100.265	19.906	59.487	0.471
680.000	404.489	80.003	20.009	100.248	19.957	43.596	0.474
688.000	408.440	80.001	20.009	100.263	19.998	30.574	0.493
696.000	412.368	80.001	20.009	100.234	20.034	19.290	0.480
704.000	416.130	80.002	20.009	100.252	20.054	12.733	0.458
712.000	420.055	80.000	20.009	100.240	20.068	8.464	0.448
720.000	424.003	80.003	20.008	100.230	20.083	3.717	0.464
728.000	427.936	80.001	20.008	100.216	20.086	2.576	0.486
736.000	431.966	80.002	20.008	100.211	20.091	1.281	0.521
744.000	435.873	80.002	20.009	100.226	20.100	-1.548	0.480
752.000	439.824	80.001	20.008	100.224	20.099	-1.355	0.452
760.000	443.831	80.002	20.009	100.206	20.104	-2.909	0.519
768.000	447.764	80.001	20.008	100.211	20.105	-3.190	0.479
776.000	451.735	80.002	20.009	100.211	20.102	-2.416	0.519
784.000	455.729	80.001	20.009	100.207	20.100	-1.702	0.508
792.000	459.668	80.001	20.008	100.194	20.104	-3.003	0.511
800.000	463.488	80.001	20.008	100.201	20.104	-2.950	0.435
808.000	467.433	80.002	20.008	100.227	20.100	-1.835	0.484
816.000	471.404	80.000	20.008	100.201	20.104	-2.903	0.508
824.000	475.324	80.001	20.008	100.208	20.104	-2.937	0.469
832.000	479.349	80.000	20.008	100.222	20.111	-5.052	0.510
840.000	483.326	80.000	20.008	100.203	20.103	-2.770	0.487
848.000	487.432	80.002	20.009	100.243	20.105	-3.330	0.527
856.000	491.374	80.001	20.009	100.213	20.106	-3.490	0.476
864.000	495.312	80.000	20.009	100.206	20.103	-2.709	0.539
872.000	499.183	80.000	20.009	100.209	20.102	-2.442	0.445
880.000	503.200	80.000	20.009	100.188	20.106	-3.637	0.503
888.000	507.073	80.002	20.008	100.190	20.103	-2.683	0.505
896.000	510.997	80.000	20.008	100.211	20.103	-2.703	0.517
904.000	514.923	80.003	20.008	100.190	20.098	-1.001	0.497
912.000	518.914	80.001	20.008	100.212	20.100	-1.815	0.514
920.000	522.891	80.001	20.008	100.209	20.101	-1.875	0.503
928.000	526.878	80.000	20.008	100.218	20.102	-2.383	0.498
936.000	530.760	80.003	20.008	100.211	20.102	-2.482	0.534
944.000	534.762	80.000	20.008	100.219	20.103	-2.722	0.491
952.000	538.795	80.000	20.008	100.211	20.099	-1.281	0.469
960.000	542.908	80.001	20.009	100.203	20.097	-0.867	0.530
968.000	546.900	80.000	20.010	100.192	20.104	-2.823	0.533
976.000	550.810	80.002	20.008	100.202	20.103	-2.683	0.453
984.000	554.801	80.001	20.009	100.199	20.107	-3.917	0.469
992.000	558.775	80.000	20.008	100.226	20.106	-3.563	0.473
1000.000	562.806	80.000	20.008	100.198	20.106	-3.584	0.494
1008.000	566.847	80.001	20.008	100.204	20.103	-2.776	0.501
1016.000	570.859	80.001	20.008	100.207	20.106	-3.450	0.482
1024.001	574.814	80.001	20.008	100.212	20.105	-3.424	0.516
1032.000	578.789	80.001	20.008	100.204	20.106	-3.530	0.495
1040.000	582.679	80.000	20.008	100.193	20.101	-2.056	0.492
1048.000	586.595	80.001	20.008	100.213	20.103	-2.603	0.507
1056.000	590.471	80.002	20.009	100.200	20.105	-3.371	0.479
1064.001	594.555	80.001	20.009	100.212	20.104	-3.010	0.537
1072.000	598.640	80.001	20.008	100.208	20.105	-3.424	0.538
1080.000	602.612	80.001	20.008	100.209	20.104	-2.950	0.476
1088.000	606.728	80.001	20.008	100.224	20.105	-3.364	0.531
1096.000	610.743	80.001	20.009	100.220	20.105	-3.257	0.500
1104.000	614.809	80.001	20.008	100.221	20.104	-2.856	0.507
1112.000	618.768	80.000	20.008	100.219	20.111	-5.299	0.501
1120.000	622.644	80.000	20.009	100.216	20.109	-4.451	0.482
1128.001	626.615	80.001	20.009	100.215	20.106	-3.751	0.516
1136.000	630.548	80.000	20.009	100.204	20.103	-2.683	0.477
1144.000	634.576	80.001	20.009	100.211	20.112	-5.433	0.515
1152.000	638.626	80.002	20.009	100.212	20.108	-4.098	0.531
1160.000	642.736	80.001	20.009	100.207	20.105	-3.230	0.523
1168.000	646.758	80.002	20.009	100.207	20.105	-3.157	0.494
1176.000	650.678	80.000	20.009	100.220	20.109	-4.485	0.462
1184.000	654.526	80.001	20.009	100.224	20.110	-4.739	0.460
1192.000	658.514	80.001	20.009	100.214	20.106	-3.744	0.476
1200.001	662.487	80.001	20.009	100.234	20.110	-4.879	0.517
1208.000	666.606	80.002	20.008	100.200	20.102	-2.483	0.532
1216.000	670.753	80.001	20.008	100.206	20.101	-2.089	0.469
1224.000	674.786	80.001	20.008	100.226	20.100	-1.635	0.499
1232.000	678.883	80.001	20.008	100.219	20.105	-3.363	0.503
1240.000	682.862	80.001	20.008	100.223	20.109	-4.391	0.474
1248.000	686.844	80.001	20.008	100.220	20.107	-3.831	0.474
1256.000	690.889	80.003	20.008	100.223	20.101	-2.022	0.514
1264.001	694.948	80.002	20.008	100.217	20.105	-3.251	0.504
1272.000	698.929	80.000	20.008	100.204	20.105	-3.264	0.495
1280.000	703.047	80.001	20.007	100.226	20.102	-2.182	0.539
1288.000	707.227	80.000	20.008	100.233	20.102	-2.463	0.521
1296.000	711.318	80.001	20.008	100.229	20.098	-1.228	0.505
1304.000	715.454	80.000	20.008	100.234	20.098	-1.222	0.517
1312.000	719.517	80.000	20.008	100.237	20.103	-2.570	0.492
1320.000	723.474	80.000	20.008	100.244	20.101	-2.023	0.512
1328.000	727.613	80.000	20.008	100.247	20.102	-2.456	0.553
1336.000	731.554	80.000	20.008	100.252	20.101	-1.876	0.487
1344.000	735.632	80.000	20.009	100.236	20.101	-2.123	0.509
1352.001	739.712	80.002	20.008	100.223	20.102	-2.430	0.476
1358.000	742.736	80.001	20.008	100.233	20.098	-1.048	0.534

File: mcc_piece_3mg_dyn30_r2.txt
Sample Weight (mg):	2.99
Heating Rate (C/s):	0.5
Combustor Temp (C):	900
N2 Flow Rate (cc/min):	80
O2 Flow Rate (cc/min):	20
Time (s)	Temperature (C)	N2 flow rate (cc/min)	O2 flow rate (cc/min)	Flow Rate (cc/min)	Oxygen (%)	HRR (W/g)	Heating rate (C/s)
-0.001	90.283	79.998	20.008	99.985	20.233	0.042	-0.020
8.000	89.669	80.001	20.008	100.430	20.176	5.982	-0.083
16.000	89.147	80.002	20.007	100.508	20.144	9.371	-0.010
24.000	89.052	80.002	20.008	100.602	20.131	10.747	0.007
32.000	89.350	80.001	20.008	100.624	20.123	11.610	0.026
39.999	90.243	80.001	20.008	100.725	20.107	13.282	0.168
47.999	91.716	80.000	20.008	100.725	20.107	13.327	0.199
55.999	93.637	80.001	20.008	100.703	20.110	12.983	0.227
63.999	95.997	80.001	20.008	100.723	20.110	13.011	0.297
71.999	98.763	80.001	20.008	100.750	20.109	13.055	0.342
79.999	101.969	80.002	20.008	100.772	20.110	13.021	0.396
87.999	105.383	80.001	20.008	100.775	20.105	13.476	0.438
95.999	109.227	80.001	20.008	100.757	20.102	13.800	0.502
104.000	113.349	80.000	20.008	100.748	20.108	13.215	0.530
111.999	117.761	80.002	20.008	100.741	20.113	12.687	0.579
119.999	122.388	80.001	20.008	100.724	20.114	12.558	0.577
127.999	127.117	80.001	20.008	100.702	20.120	11.886	0.570
136.000	131.914	80.000	20.008	100.702	20.123	11.612	0.628
144.000	136.714	80.001	20.008	100.668	20.123	11.607	0.581
152.000	141.551	80.001	20.008	100.674	20.127	11.202	0.582
160.000	146.330	80.002	20.008	100.655	20.131	10.776	0.611
168.000	150.942	80.000	20.008	100.632	20.132	10.636	0.548
176.000	155.508	80.001	20.008	100.619	20.136	10.223	0.551
184.000	160.079	80.001	20.008	100.590	20.132	10.691	0.550
192.000	164.466	80.002	20.008	100.606	20.132	10.688	0.546
200.000	168.831	80.001	20.008	100.588	20.127	11.208	0.541
208.000	173.143	80.003	20.008	100.599	20.123	11.633	0.499
216.000	177.384	80.000	20.008	100.598	20.121	11.793	0.495
224.000	181.568	80.002	20.008	100.580	20.122	11.731	0.494
232.000	185.805	80.001	20.008	100.588	20.125	11.389	0.545
240.000	189.846	80.002	20.008	100.571	20.122	11.689	0.529
248.000	193.914	80.000	20.008	100.560	20.122	11.749	0.550
256.000	197.995	80.002	20.008	100.575	20.126	11.238	0.478
264.000	201.972	80.003	20.008	100.581	20.128	11.064	0.489
272.000	206.029	80.002	20.008	100.569	20.125	11.357	0.482
280.000	210.118	80.001	20.008	100.557	20.122	11.702	0.509
288.000	214.063	80.003	20.008	100.557	20.122	11.684	0.494
296.000	218.062	80.003	20.008	100.551	20.125	11.433	0.501
304.000	222.060	80.002	20.008	100.543	20.121	11.821	0.476
312.000	226.084	80.001	20.008	100.552	20.126	11.328	0.506
320.000	230.077	80.003	20.008	100.558	20.121	11.760	0.496
328.000	234.132	80.003	20.008	100.558	20.124	11.541	0.461
336.000	238.168	80.002	20.008	100.547	20.122	11.747	0.514
344.000	242.220	80.003	20.008	100.547	20.116	12.297	0.480
352.000	246.361	80.003	20.008	100.531	20.116	12.278	0.490
360.000	250.446	80.002	20.008	100.527	20.117	12.176	0.558
368.000	254.412	80.002	20.008	100.533	20.114	12.561	0.520
376.000	258.475	80.002	20.008	100.515	20.110	12.998	0.524
384.000	262.459	80.003	20.008	100.523	20.102	13.787	0.515
392.000	266.492	80.001	20.008	100.531	20.094	14.597	0.534
400.000	270.480	80.002	20.008	100.546	20.088	15.272	0.538
408.000	274.498	80.001	20.008	100.532	20.077	16.418	0.510
416.000	278.532	80.001	20.008	100.510	20.067	17.503	0.503
424.000	282.487	80.001	20.008	100.526	20.056	18.589	0.478
432.000	286.560	80.000	20.008	100.522	20.043	20.028	0.488
440.000	290.622	80.001	20.008	100.514	20.035	20.852	0.505
448.000	294.605	80.002	20.008	100.514	20.028	21.579	0.480
456.000	298.662	80.002	20.008	100.544	20.022	22.159	0.477
464.000	302.676	80.001	20.008	100.536	20.015	22.955	0.495
472.000	306.697	80.002	20.008	100.561	19.999	24.633	0.526
480.000	310.775	80.003	20.008	100.547	19.973	27.296	0.527
488.000	314.774	80.001	20.008	100.522	19.934	31.373	0.476
496.000	318.832	80.001	20.008	100.514	19.879	37.225	0.502
504.000	322.778	80.002	20.009	100.502	19.789	46.642	0.475
512.000	326.818	80.002	20.008	100.499	19.690	57.014	0.499
520.000	330.863	80.001	20.008	100.549	19.520	74.776	0.536
528.000	334.724	80.002	20.008	100.482	19.347	93.075	0.506
536.000	338.689	80.002	20.009	100.511	19.184	110.093	0.505
544.000	342.698	80.002	20.008	100.556	18.974	132.196	0.509
552.000	346.604	80.002	20.008	100.498	18.820	148.400	0.524
560.000	350.563	80.002	20.008	100.562	18.664	164.791	0.429
568.000	354.556	80.002	20.008	100.546	18.529	178.962	0.432
576.000	358.612	80.002	20.008	100.585	18.408	191.701	0.491
584.000	362.665	80.002	20.008	100.600	18.350	197.839	0.502
592.000	366.693	80.003	20.008	100.676	18.298	203.255	0.516
600.000	370.721	80.002	20.008	100.575	18.355	197.524	0.509
608.000	374.735	80.002	20.008	100.704	18.466	185.521	0.473
616.000	378.762	80.001	20.009	100.710	18.544	177.407	0.489
624.000	382.856	80.002	20.007	100.599	18.771	153.640	0.512
632.000	387.017	80.002	20.008	100.719	18.992	130.420	0.522
640.000	391.137	80.002	20.008	100.680	19.194	109.085	0.555
648.000	395.096	80.001	20.008	100.664	19.388	88.834	0.502
656.000	399.089	80.002	20.008	100.621	19.597	66.844	0.468
664.000	403.098	80.002	20.008	100.671	19.766	49.115	0.466
672.000	407.046	80.001	20.007	100.652	19.887	36.361	0.504
680.000	410.959	80.001	20.007	100.597	19.972	27.430	0.524
688.000	414.923	80.001	20.008	100.543	20.036	20.704	0.457
696.000	418.822	80.002	20.008	100.539	20.081	15.994	0.471
704.000	422.800	80.001	20.008	100.519	20.103	13.660	0.499
712.000	426.722	80.003	20.008	100.542	20.124	11.534	0.501
720.000	430.612	80.001	20.008	100.534	20.139	9.942	0.522
728.000	434.485	80.001	20.008	100.477	20.153	8.460	0.491
736.000	438.517	80.001	20.009	100.471	20.162	7.524	0.553
744.000	442.488	80.001	20.009	100.469	20.171	6.554	0.464
752.000	446.374	80.002	20.009	100.490	20.178	5.809	0.461
760.000	450.382	80.002	20.009	100.494	20.176	6.070	0.522
768.000	454.391	80.002	20.009	100.492	20.179	5.722	0.466
776.000	458.302	80.002	20.009	100.481	20.178	5.845	0.509
784.000	462.274	80.002	20.009	100.490	20.181	5.539	0.449
792.000	466.175	80.002	20.009	100.480	20.178	5.782	0.500
800.000	470.117	80.001	20.009	100.471	20.184	5.239	0.501
808.000	473.957	80.000	20.009	100.469	20.183	5.322	0.496
816.000	477.825	80.001	20.009	100.478	20.186	5.016	0.448
824.000	481.820	80.001	20.009	100.476	20.179	5.717	0.493
832.000	485.821	80.002	20.009	100.491	20.180	5.619	0.496
840.000	489.825	80.002	20.009	100.499	20.180	5.646	0.530
848.000	493.784	80.002	20.009	100.463	20.184	5.214	0.473
856.000	497.808	80.003	20.009	100.478	20.185	5.132	0.501
864.000	501.882	80.001	20.009	100.482	20.186	4.941	0.547
872.000	505.834	80.001	20.009	100.492	20.183	5.333	0.514
880.000	509.839	80.002	20.009	100.513	20.182	5.438	0.522
888.000	513.701	80.002	20.009	100.486	20.185	5.073	0.472
896.000	517.582	80.001	20.009	100.490	20.183	5.335	0.467
904.000	521.578	80.001	20.009	100.479	20.180	5.575	0.478
912.000	525.588	80.002	20.009	100.467	20.179	5.667	0.468
920.000	529.552	80.002	20.009	100.481	20.181	5.530	0.508
928.000	533.460	80.002	20.009	100.478	20.180	5.655	0.478
936.000	537.511	80.002	20.009	100.491	20.186	5.007	0.513
944.000	541.546	80.001	20.009	100.490	20.182	5.393	0.513
952.000	545.525	80.002	20.010	100.475	20.179	5.748	0.557
960.000	549.538	80.002	20.009	100.505	20.185	5.131	0.507
968.000	553.505	80.002	20.009	100.514	20.182	5.402	0.468
976.000	557.614	80.001	20.009	100.486	20.181	5.546	0.523
984.000	561.391	80.002	20.009	100.487	20.180	5.583	0.488
992.000	565.274	80.001	20.009	100.499	20.185	5.091	0.499
1000.000	569.223	80.000	20.009	100.509	20.184	5.143	0.511
1008.000	573.154	80.002	20.009	100.504	20.186	4.973	0.511
1016.000	577.103	80.000	20.009	100.491	20.183	5.333	0.451
1024.000	581.094	80.001	20.009	100.498	20.182	5.385	0.467
1031.999	585.108	80.001	20.009	100.489	20.180	5.661	0.484
1040.000	589.219	80.002	20.009	100.494	20.179	5.722	0.502
1047.999	593.301	80.001	20.010	100.495	20.179	5.767	0.531
1055.999	597.261	80.000	20.009	100.493	20.177	5.955	0.501
1063.999	601.364	80.002	20.010	100.510	20.178	5.837	0.539
1071.999	605.330	80.001	20.009	100.519	20.180	5.615	0.486
1079.999	609.429	80.001	20.009	100.517	20.182	5.436	0.491
1087.999	613.428	80.001	20.009	100.505	20.182	5.451	0.514
1095.999	617.346	80.002	20.009	100.523	20.184	5.234	0.501
1103.999	621.107	80.002	20.009	100.529	20.184	5.198	0.479
1111.999	624.849	80.002	20.009	100.544	20.184	5.183	0.478
1120.000	628.680	80.000	20.010	100.533	20.184	5.225	0.492
1127.999	632.540	80.002	20.009	100.527	20.181	5.494	0.478
1135.999	636.492	80.001	20.009	100.527	20.180	5.658	0.511
1143.999	640.605	80.001	20.009	100.499	20.167	6.941	0.493
1152.000	644.797	80.001	20.009	100.508	20.170	6.667	0.530
1159.999	649.037	80.002	20.009	100.522	20.170	6.680	0.541
1167.999	653.223	80.003	20.009	100.516	20.170	6.649	0.500
1175.999	657.425	80.001	20.009	100.528	20.172	6.423	0.517
1184.000	661.546	80.001	20.009	100.500	20.167	6.995	0.503
1191.999	665.680	80.002	20.008	100.512	20.167	6.929	0.484
1200.000	669.781	80.003	20.008	100.528	20.167	7.002	0.529
1207.999	673.777	80.003	20.008	100.543	20.170	6.688	0.541
1215.999	677.697	80.002	20.008	100.563	20.169	6.801	0.483
1223.999	681.655	80.002	20.009	100.520	20.169	6.810	0.483
1232.000	685.488	80.002	20.009	100.532	20.171	6.529	0.460
1240.000	689.471	80.001	20.009	100.541	20.170	6.619	0.541
1247.999	693.355	80.001	20.010	100.530	20.169	6.721	0.497
1255.999	697.435	80.001	20.010	100.509	20.162	7.495	0.489
1263.999	701.425	80.002	20.010	100.507	20.163	7.427	0.472
1271.999	705.486	80.001	20.009	100.515	20.162	7.509	0.486
1279.999	709.600	80.002	20.009	100.489	20.161	7.641	0.509
1287.999	713.582	80.002	20.010	100.496	20.155	8.256	0.504
1295.999	717.632	80.002	20.009	100.521	20.160	7.686	0.490
1303.999	721.504	80.003	20.009	100.495	20.159	7.860	0.489
1311.999	725.488	80.002	20.009	100.508	20.156	8.126	0.528
1319.999	729.597	80.002	20.009	100.541	20.165	7.191	0.497
1327.999	733.668	80.002	20.009	100.532	20.163	7.380	0.512
1335.999	737.863	80.001	20.010	100.489	20.156	8.092	0.538
1343.999	741.816	80.002	20.009	100.537	20.163	7.445	0.517
1344.999	742.367	80.002	20.009	100.526	20.161	7.614	0.529