Folder: Pyrolysis_BESKID/Experiments/TGA/TUBS/tga_nonisotherm (part 12)

File: tga_dynamic_n2_dyn60_piece_1mg_r1.txt
index	ts	t	weight	tr
[#]	[°C]	[s]	[mg]	[°C]
643	1.30198e+02	6.43000e+02	1.04751e+00	1.33000e+02
646	1.33234e+02	6.46000e+02	1.04744e+00	1.36000e+02
649	1.36239e+02	6.49000e+02	1.04745e+00	1.39000e+02
652	1.39252e+02	6.52000e+02	1.04753e+00	1.42000e+02
655	1.42249e+02	6.55000e+02	1.04764e+00	1.45000e+02
658	1.45256e+02	6.58000e+02	1.04773e+00	1.48000e+02
661	1.48261e+02	6.61000e+02	1.04782e+00	1.51000e+02
664	1.51270e+02	6.64000e+02	1.04786e+00	1.54000e+02
667	1.54273e+02	6.67000e+02	1.04782e+00	1.57000e+02
670	1.57267e+02	6.70000e+02	1.04765e+00	1.60000e+02
673	1.60253e+02	6.73000e+02	1.04748e+00	1.63000e+02
676	1.63252e+02	6.76000e+02	1.04733e+00	1.66000e+02
679	1.66236e+02	6.79000e+02	1.04727e+00	1.69000e+02
682	1.69231e+02	6.82000e+02	1.04729e+00	1.72000e+02
685	1.72220e+02	6.85000e+02	1.04727e+00	1.75000e+02
688	1.75201e+02	6.88000e+02	1.04717e+00	1.78000e+02
691	1.78195e+02	6.91000e+02	1.04705e+00	1.81000e+02
694	1.81184e+02	6.94000e+02	1.04698e+00	1.84000e+02
697	1.84174e+02	6.97000e+02	1.04699e+00	1.87000e+02
700	1.87173e+02	7.00000e+02	1.04697e+00	1.90000e+02
703	1.90163e+02	7.03000e+02	1.04686e+00	1.93000e+02
706	1.93153e+02	7.06000e+02	1.04665e+00	1.96000e+02
709	1.96146e+02	7.09000e+02	1.04638e+00	1.99000e+02
712	1.99144e+02	7.12000e+02	1.04605e+00	2.02000e+02
715	2.02147e+02	7.15000e+02	1.04567e+00	2.05000e+02
718	2.05143e+02	7.18000e+02	1.04521e+00	2.08000e+02
721	2.08137e+02	7.21000e+02	1.04469e+00	2.11000e+02
724	2.11135e+02	7.24000e+02	1.04410e+00	2.14000e+02
727	2.14136e+02	7.27000e+02	1.04345e+00	2.17000e+02
730	2.17160e+02	7.30000e+02	1.04276e+00	2.20000e+02
733	2.20147e+02	7.33000e+02	1.04207e+00	2.23000e+02
736	2.23144e+02	7.36000e+02	1.04134e+00	2.26000e+02
739	2.26137e+02	7.39000e+02	1.04056e+00	2.29000e+02
742	2.29127e+02	7.42000e+02	1.03976e+00	2.32000e+02
745	2.32117e+02	7.45000e+02	1.03896e+00	2.35000e+02
748	2.35119e+02	7.48000e+02	1.03815e+00	2.38000e+02
751	2.38104e+02	7.51000e+02	1.03731e+00	2.41000e+02
754	2.41128e+02	7.54000e+02	1.03649e+00	2.44000e+02
757	2.44099e+02	7.57000e+02	1.03565e+00	2.47000e+02
760	2.47070e+02	7.60000e+02	1.03472e+00	2.50000e+02
763	2.50071e+02	7.63000e+02	1.03377e+00	2.53000e+02
766	2.53063e+02	7.66000e+02	1.03282e+00	2.56000e+02
769	2.56081e+02	7.69000e+02	1.03188e+00	2.59000e+02
772	2.59098e+02	7.72000e+02	1.03094e+00	2.62000e+02
775	2.62123e+02	7.75000e+02	1.03001e+00	2.65000e+02
778	2.65136e+02	7.78000e+02	1.02906e+00	2.68000e+02
781	2.68139e+02	7.81000e+02	1.02807e+00	2.71000e+02
784	2.71169e+02	7.84000e+02	1.02707e+00	2.74000e+02
787	2.74203e+02	7.87000e+02	1.02604e+00	2.77000e+02
790	2.77225e+02	7.90000e+02	1.02497e+00	2.80000e+02
793	2.80266e+02	7.93000e+02	1.02387e+00	2.83000e+02
796	2.83317e+02	7.96000e+02	1.02278e+00	2.86000e+02
799	2.86363e+02	7.99000e+02	1.02165e+00	2.89000e+02
802	2.89368e+02	8.02000e+02	1.02044e+00	2.92000e+02
805	2.92418e+02	8.05000e+02	1.01914e+00	2.95000e+02
808	2.95461e+02	8.08000e+02	1.01778e+00	2.98000e+02
811	2.98524e+02	8.11000e+02	1.01637e+00	3.01000e+02
814	3.01594e+02	8.14000e+02	1.01484e+00	3.04000e+02
817	3.04687e+02	8.17000e+02	1.01317e+00	3.07000e+02
820	3.07756e+02	8.20000e+02	1.01133e+00	3.10000e+02
823	3.10847e+02	8.23000e+02	1.00929e+00	3.13000e+02
826	3.13866e+02	8.26000e+02	1.00692e+00	3.16000e+02
829	3.16969e+02	8.29000e+02	1.00426e+00	3.19000e+02
832	3.19898e+02	8.32000e+02	1.00138e+00	3.22000e+02
835	3.22837e+02	8.35000e+02	9.98366e-01	3.25000e+02
838	3.25832e+02	8.38000e+02	9.95151e-01	3.28000e+02
841	3.28808e+02	8.41000e+02	9.91780e-01	3.31000e+02
844	3.31787e+02	8.44000e+02	9.88301e-01	3.34000e+02
847	3.34775e+02	8.47000e+02	9.84726e-01	3.37000e+02
850	3.37765e+02	8.50000e+02	9.80943e-01	3.40000e+02
853	3.40745e+02	8.53000e+02	9.76857e-01	3.43000e+02
856	3.43753e+02	8.56000e+02	9.72380e-01	3.46000e+02
859	3.46754e+02	8.59000e+02	9.67462e-01	3.49000e+02
862	3.49783e+02	8.62000e+02	9.61710e-01	3.52000e+02
865	3.52787e+02	8.65000e+02	9.54998e-01	3.55000e+02
868	3.55782e+02	8.68000e+02	9.47069e-01	3.58000e+02
871	3.58797e+02	8.71000e+02	9.37777e-01	3.61000e+02
874	3.61783e+02	8.74000e+02	9.25978e-01	3.64000e+02
877	3.64762e+02	8.77000e+02	9.11593e-01	3.67000e+02
880	3.67740e+02	8.80000e+02	8.94193e-01	3.70000e+02
883	3.70735e+02	8.83000e+02	8.73689e-01	3.73000e+02
886	3.73730e+02	8.86000e+02	8.48373e-01	3.76000e+02
889	3.76691e+02	8.89000e+02	8.19242e-01	3.79000e+02
892	3.79674e+02	8.92000e+02	7.86212e-01	3.82000e+02
895	3.82627e+02	8.95000e+02	7.49733e-01	3.85000e+02
898	3.85562e+02	8.98000e+02	7.08437e-01	3.88000e+02
901	3.88528e+02	9.01000e+02	6.64058e-01	3.91000e+02
904	3.91509e+02	9.04000e+02	6.17201e-01	3.94000e+02
907	3.94514e+02	9.07000e+02	5.68619e-01	3.97000e+02
910	3.97530e+02	9.10000e+02	5.18070e-01	4.00000e+02
913	4.00541e+02	9.13000e+02	4.66721e-01	4.03000e+02
916	4.03550e+02	9.16000e+02	4.14899e-01	4.06000e+02
919	4.06583e+02	9.19000e+02	3.62992e-01	4.09000e+02
922	4.09660e+02	9.22000e+02	3.11729e-01	4.12000e+02
925	4.12738e+02	9.25000e+02	2.62253e-01	4.15000e+02
928	4.15768e+02	9.28000e+02	2.15760e-01	4.18000e+02
931	4.18842e+02	9.31000e+02	1.73018e-01	4.21000e+02
934	4.21911e+02	9.34000e+02	1.36828e-01	4.24000e+02
937	4.24938e+02	9.37000e+02	1.06451e-01	4.27000e+02
940	4.28056e+02	9.40000e+02	8.15825e-02	4.30000e+02
943	4.31265e+02	9.43000e+02	6.10962e-02	4.33000e+02
946	4.34389e+02	9.46000e+02	4.64214e-02	4.36000e+02
949	4.37570e+02	9.49000e+02	3.53068e-02	4.39000e+02
952	4.40535e+02	9.52000e+02	2.70269e-02	4.42000e+02
955	4.43506e+02	9.55000e+02	2.06629e-02	4.45000e+02
958	4.46501e+02	9.58000e+02	1.64980e-02	4.48000e+02
961	4.49472e+02	9.61000e+02	1.34022e-02	4.51000e+02
964	4.52402e+02	9.64000e+02	1.11362e-02	4.54000e+02
967	4.55308e+02	9.67000e+02	9.46173e-03	4.57000e+02
970	4.58197e+02	9.70000e+02	8.38485e-03	4.60000e+02
973	4.61165e+02	9.73000e+02	7.46794e-03	4.63000e+02
976	4.64069e+02	9.76000e+02	6.74600e-03	4.66000e+02
979	4.67063e+02	9.79000e+02	6.22967e-03	4.69000e+02
982	4.69999e+02	9.82000e+02	5.95992e-03	4.72000e+02
985	4.72951e+02	9.85000e+02	5.76294e-03	4.75000e+02
988	4.75900e+02	9.88000e+02	5.57486e-03	4.78000e+02
991	4.78845e+02	9.91000e+02	5.35207e-03	4.81000e+02
994	4.81793e+02	9.94000e+02	5.10129e-03	4.84000e+02
997	4.84736e+02	9.97000e+02	4.92461e-03	4.87000e+02
1000	4.87741e+02	1.00000e+03	4.85433e-03	4.90000e+02
1003	4.90709e+02	1.00300e+03	4.86033e-03	4.93000e+02
1006	4.93686e+02	1.00600e+03	4.91462e-03	4.96000e+02
1009	4.96676e+02	1.00900e+03	4.91775e-03	4.99000e+02
1012	4.99585e+02	1.01200e+03	4.85132e-03	5.02000e+02
1015	5.02505e+02	1.01500e+03	4.75588e-03	5.05000e+02
1018	5.05467e+02	1.01800e+03	4.66113e-03	5.08000e+02
1021	5.08411e+02	1.02100e+03	4.61766e-03	5.11000e+02
1024	5.11325e+02	1.02400e+03	4.61556e-03	5.14000e+02
1027	5.14242e+02	1.02700e+03	4.60921e-03	5.17000e+02
1030	5.17187e+02	1.03000e+03	4.57924e-03	5.20000e+02
1033	5.20149e+02	1.03300e+03	4.52934e-03	5.23000e+02
1036	5.23090e+02	1.03600e+03	4.45891e-03	5.26000e+02
1039	5.26007e+02	1.03900e+03	4.37247e-03	5.29000e+02
1042	5.28914e+02	1.04200e+03	4.25458e-03	5.32000e+02
1045	5.31816e+02	1.04500e+03	4.15783e-03	5.35000e+02
1048	5.34728e+02	1.04800e+03	4.13778e-03	5.38000e+02
1051	5.37655e+02	1.05100e+03	4.13882e-03	5.41000e+02
1054	5.40573e+02	1.05400e+03	4.12638e-03	5.44000e+02
1057	5.43521e+02	1.05700e+03	4.07015e-03	5.47000e+02
1060	5.46404e+02	1.06000e+03	4.03713e-03	5.50000e+02
1063	5.49295e+02	1.06300e+03	4.05804e-03	5.53000e+02
1066	5.52194e+02	1.06600e+03	4.12393e-03	5.56000e+02
1069	5.55095e+02	1.06900e+03	4.12880e-03	5.59000e+02
1072	5.58024e+02	1.07200e+03	4.08157e-03	5.62000e+02
1075	5.60963e+02	1.07500e+03	4.02753e-03	5.65000e+02
1078	5.63911e+02	1.07800e+03	3.98534e-03	5.68000e+02
1081	5.66866e+02	1.08100e+03	3.95754e-03	5.71000e+02
1084	5.69804e+02	1.08400e+03	3.92447e-03	5.74000e+02
1087	5.72739e+02	1.08700e+03	3.87856e-03	5.77000e+02
1090	5.75704e+02	1.09000e+03	3.83218e-03	5.80000e+02
1093	5.78654e+02	1.09300e+03	3.83021e-03	5.83000e+02
1096	5.81663e+02	1.09600e+03	3.84645e-03	5.86000e+02
1099	5.84634e+02	1.09900e+03	3.86073e-03	5.89000e+02
1102	5.87604e+02	1.10200e+03	3.86206e-03	5.92000e+02
1105	5.90555e+02	1.10500e+03	3.86440e-03	5.95000e+02
1108	5.93527e+02	1.10800e+03	3.87298e-03	5.98000e+02
1111	5.96464e+02	1.11100e+03	3.87495e-03	6.01000e+02
1114	5.99412e+02	1.11400e+03	3.86177e-03	6.04000e+02
1117	6.02351e+02	1.11700e+03	3.82048e-03	6.07000e+02
1120	6.05280e+02	1.12000e+03	3.75039e-03	6.10000e+02
1123	6.08177e+02	1.12300e+03	3.71243e-03	6.13000e+02
1126	6.11086e+02	1.12600e+03	3.72861e-03	6.16000e+02
1129	6.13994e+02	1.12900e+03	3.74548e-03	6.19000e+02
1132	6.16911e+02	1.13200e+03	3.74824e-03	6.22000e+02
1135	6.19901e+02	1.13500e+03	3.74737e-03	6.25000e+02
1138	6.22938e+02	1.13800e+03	3.75027e-03	6.28000e+02
1141	6.25979e+02	1.14100e+03	3.75407e-03	6.31000e+02
1144	6.28966e+02	1.14400e+03	3.74225e-03	6.34000e+02
1147	6.31977e+02	1.14700e+03	3.69687e-03	6.37000e+02
1150	6.34892e+02	1.15000e+03	3.61954e-03	6.40000e+02
1153	6.37802e+02	1.15300e+03	3.58949e-03	6.43000e+02
1156	6.40735e+02	1.15600e+03	3.63884e-03	6.46000e+02
1159	6.43721e+02	1.15900e+03	3.70261e-03	6.49000e+02
1162	6.46677e+02	1.16200e+03	3.77046e-03	6.52000e+02
1165	6.49687e+02	1.16500e+03	3.82613e-03	6.55000e+02
1168	6.52682e+02	1.16800e+03	3.82737e-03	6.58000e+02
1171	6.55741e+02	1.17100e+03	3.78806e-03	6.61000e+02
1174	6.58713e+02	1.17400e+03	3.73199e-03	6.64000e+02
1177	6.61681e+02	1.17700e+03	3.70527e-03	6.67000e+02
1180	6.64663e+02	1.18000e+03	3.67343e-03	6.70000e+02
1183	6.67654e+02	1.18300e+03	3.66602e-03	6.73000e+02
1186	6.69477e+02	1.18600e+03	3.73648e-03	6.76000e+02
1189	6.71623e+02	1.18900e+03	3.86083e-03	6.79000e+02
1192	6.73764e+02	1.19200e+03	3.91706e-03	6.82000e+02
1195	6.75706e+02	1.19500e+03	3.90976e-03	6.85000e+02
1198	6.77451e+02	1.19800e+03	3.82536e-03	6.88000e+02
1201	6.79114e+02	1.20100e+03	3.73699e-03	6.91000e+02
1204	6.80607e+02	1.20400e+03	3.67004e-03	6.94000e+02
1207	6.81979e+02	1.20700e+03	3.59982e-03	6.97000e+02
1210	6.83249e+02	1.21000e+03	3.51553e-03	7.00000e+02

File: tga_dynamic_n2_dyn60_piece_12mg_r1.txt
index	ts	t	weight	tr
[#]	[°C]	[s]	[mg]	[°C]
643	1.30360e+02	6.43000e+02	1.19044e+01	1.33000e+02
646	1.33457e+02	6.46000e+02	1.19045e+01	1.36000e+02
649	1.36569e+02	6.49000e+02	1.19045e+01	1.39000e+02
652	1.39635e+02	6.52000e+02	1.19045e+01	1.42000e+02
655	1.42732e+02	6.55000e+02	1.19045e+01	1.45000e+02
658	1.45807e+02	6.58000e+02	1.19045e+01	1.48000e+02
661	1.48877e+02	6.61000e+02	1.19044e+01	1.51000e+02
664	1.51950e+02	6.64000e+02	1.19042e+01	1.54000e+02
667	1.55018e+02	6.67000e+02	1.19039e+01	1.57000e+02
670	1.58070e+02	6.70000e+02	1.19036e+01	1.60000e+02
673	1.61140e+02	6.73000e+02	1.19034e+01	1.63000e+02
676	1.64208e+02	6.76000e+02	1.19031e+01	1.66000e+02
679	1.67266e+02	6.79000e+02	1.19029e+01	1.69000e+02
682	1.70335e+02	6.82000e+02	1.19026e+01	1.72000e+02
685	1.73394e+02	6.85000e+02	1.19024e+01	1.75000e+02
688	1.76442e+02	6.88000e+02	1.19020e+01	1.78000e+02
691	1.79498e+02	6.91000e+02	1.19016e+01	1.81000e+02
694	1.82544e+02	6.94000e+02	1.19011e+01	1.84000e+02
697	1.85595e+02	6.97000e+02	1.19006e+01	1.87000e+02
700	1.88659e+02	7.00000e+02	1.18999e+01	1.90000e+02
703	1.91703e+02	7.03000e+02	1.18992e+01	1.93000e+02
706	1.94754e+02	7.06000e+02	1.18983e+01	1.96000e+02
709	1.97802e+02	7.09000e+02	1.18972e+01	1.99000e+02
712	2.00836e+02	7.12000e+02	1.18959e+01	2.02000e+02
715	2.03886e+02	7.15000e+02	1.18944e+01	2.05000e+02
718	2.06936e+02	7.18000e+02	1.18924e+01	2.08000e+02
721	2.09973e+02	7.21000e+02	1.18901e+01	2.11000e+02
724	2.13011e+02	7.24000e+02	1.18875e+01	2.14000e+02
727	2.16010e+02	7.27000e+02	1.18847e+01	2.17000e+02
730	2.19067e+02	7.30000e+02	1.18815e+01	2.20000e+02
733	2.22124e+02	7.33000e+02	1.18781e+01	2.23000e+02
736	2.25165e+02	7.36000e+02	1.18746e+01	2.26000e+02
739	2.28242e+02	7.39000e+02	1.18709e+01	2.29000e+02
742	2.31320e+02	7.42000e+02	1.18670e+01	2.32000e+02
745	2.34373e+02	7.45000e+02	1.18631e+01	2.35000e+02
748	2.37460e+02	7.48000e+02	1.18590e+01	2.38000e+02
751	2.40538e+02	7.51000e+02	1.18550e+01	2.41000e+02
754	2.43748e+02	7.54000e+02	1.18508e+01	2.44000e+02
757	2.47089e+02	7.57000e+02	1.18465e+01	2.47000e+02
760	2.50314e+02	7.60000e+02	1.18420e+01	2.50000e+02
763	2.53449e+02	7.63000e+02	1.18374e+01	2.53000e+02
766	2.56582e+02	7.66000e+02	1.18325e+01	2.56000e+02
769	2.59694e+02	7.69000e+02	1.18275e+01	2.59000e+02
772	2.62862e+02	7.72000e+02	1.18224e+01	2.62000e+02
775	2.66024e+02	7.75000e+02	1.18170e+01	2.65000e+02
778	2.69120e+02	7.78000e+02	1.18113e+01	2.68000e+02
781	2.72211e+02	7.81000e+02	1.18054e+01	2.71000e+02
784	2.75342e+02	7.84000e+02	1.17994e+01	2.74000e+02
787	2.78500e+02	7.87000e+02	1.17931e+01	2.77000e+02
790	2.81705e+02	7.90000e+02	1.17866e+01	2.80000e+02
793	2.84713e+02	7.93000e+02	1.17789e+01	2.83000e+02
796	2.87730e+02	7.96000e+02	1.17693e+01	2.86000e+02
799	2.90783e+02	7.99000e+02	1.17575e+01	2.89000e+02
802	2.93838e+02	8.02000e+02	1.17425e+01	2.92000e+02
805	2.96835e+02	8.05000e+02	1.17262e+01	2.95000e+02
808	2.99807e+02	8.08000e+02	1.17105e+01	2.98000e+02
811	3.02796e+02	8.11000e+02	1.16954e+01	3.01000e+02
814	3.05791e+02	8.14000e+02	1.16809e+01	3.04000e+02
817	3.08799e+02	8.17000e+02	1.16661e+01	3.07000e+02
820	3.11743e+02	8.20000e+02	1.16505e+01	3.10000e+02
823	3.14654e+02	8.23000e+02	1.16340e+01	3.13000e+02
826	3.17555e+02	8.26000e+02	1.16160e+01	3.16000e+02
829	3.20322e+02	8.29000e+02	1.15964e+01	3.19000e+02
832	3.23202e+02	8.32000e+02	1.15753e+01	3.22000e+02
835	3.25958e+02	8.35000e+02	1.15527e+01	3.25000e+02
838	3.28784e+02	8.38000e+02	1.15274e+01	3.28000e+02
841	3.31411e+02	8.41000e+02	1.14997e+01	3.31000e+02
844	3.33919e+02	8.44000e+02	1.14698e+01	3.34000e+02
847	3.36569e+02	8.47000e+02	1.14381e+01	3.37000e+02
850	3.39436e+02	8.50000e+02	1.14029e+01	3.40000e+02
853	3.42352e+02	8.53000e+02	1.13633e+01	3.43000e+02
856	3.45335e+02	8.56000e+02	1.13185e+01	3.46000e+02
859	3.48311e+02	8.59000e+02	1.12685e+01	3.49000e+02
862	3.51296e+02	8.62000e+02	1.12063e+01	3.52000e+02
865	3.54291e+02	8.65000e+02	1.11342e+01	3.55000e+02
868	3.57421e+02	8.68000e+02	1.10466e+01	3.58000e+02
871	3.60316e+02	8.71000e+02	1.09486e+01	3.61000e+02
874	3.63234e+02	8.74000e+02	1.08300e+01	3.64000e+02
877	3.66134e+02	8.77000e+02	1.06913e+01	3.67000e+02
880	3.69137e+02	8.80000e+02	1.05275e+01	3.70000e+02
883	3.72028e+02	8.83000e+02	1.03386e+01	3.73000e+02
886	3.74904e+02	8.86000e+02	1.01227e+01	3.76000e+02
889	3.77775e+02	8.89000e+02	9.88114e+00	3.79000e+02
892	3.81014e+02	8.92000e+02	9.61071e+00	3.82000e+02
895	3.83864e+02	8.95000e+02	9.31398e+00	3.85000e+02
898	3.86669e+02	8.98000e+02	8.99345e+00	3.88000e+02
901	3.89451e+02	9.01000e+02	8.65154e+00	3.91000e+02
904	3.92233e+02	9.04000e+02	8.28686e+00	3.94000e+02
907	3.95020e+02	9.07000e+02	7.90593e+00	3.97000e+02
910	3.97803e+02	9.10000e+02	7.50531e+00	4.00000e+02
913	4.00624e+02	9.13000e+02	7.08904e+00	4.03000e+02
916	4.03417e+02	9.16000e+02	6.66262e+00	4.06000e+02
919	4.06128e+02	9.19000e+02	6.22559e+00	4.09000e+02
922	4.08839e+02	9.22000e+02	5.76942e+00	4.12000e+02
925	4.11624e+02	9.25000e+02	5.29312e+00	4.15000e+02
928	4.14442e+02	9.28000e+02	4.78587e+00	4.18000e+02
931	4.17322e+02	9.31000e+02	4.25964e+00	4.21000e+02
934	4.20230e+02	9.34000e+02	3.72046e+00	4.24000e+02
937	4.23265e+02	9.37000e+02	3.17727e+00	4.27000e+02
940	4.26369e+02	9.40000e+02	2.63244e+00	4.30000e+02
943	4.29730e+02	9.43000e+02	2.08853e+00	4.33000e+02
946	4.33178e+02	9.46000e+02	1.55449e+00	4.36000e+02
949	4.36620e+02	9.49000e+02	1.07838e+00	4.39000e+02
952	4.40020e+02	9.52000e+02	6.97000e-01	4.42000e+02
955	4.43436e+02	9.55000e+02	4.24246e-01	4.45000e+02
958	4.46837e+02	9.58000e+02	2.45532e-01	4.48000e+02
961	4.50286e+02	9.61000e+02	1.31949e-01	4.51000e+02
964	4.53565e+02	9.64000e+02	6.40301e-02	4.54000e+02
967	4.56799e+02	9.67000e+02	2.40565e-02	4.57000e+02
970	4.59966e+02	9.70000e+02	1.93157e-03	4.60000e+02
973	4.63122e+02	9.73000e+02	-1.13707e-02	4.63000e+02
976	4.66206e+02	9.76000e+02	-2.04002e-02	4.66000e+02
979	4.69293e+02	9.79000e+02	-2.66752e-02	4.69000e+02
982	4.72373e+02	9.82000e+02	-3.00443e-02	4.72000e+02
985	4.75387e+02	9.85000e+02	-3.22102e-02	4.75000e+02
988	4.78402e+02	9.88000e+02	-3.35487e-02	4.78000e+02
991	4.81405e+02	9.91000e+02	-3.43930e-02	4.81000e+02
994	4.84369e+02	9.94000e+02	-3.47601e-02	4.84000e+02
997	4.87323e+02	9.97000e+02	-3.49923e-02	4.87000e+02
1000	4.90281e+02	1.00000e+03	-3.51758e-02	4.90000e+02
1003	4.93273e+02	1.00300e+03	-3.53361e-02	4.93000e+02
1006	4.96338e+02	1.00600e+03	-3.55030e-02	4.96000e+02
1009	4.99452e+02	1.00900e+03	-3.56846e-02	4.99000e+02
1012	5.02493e+02	1.01200e+03	-3.58381e-02	5.02000e+02
1015	5.05540e+02	1.01500e+03	-3.59427e-02	5.05000e+02
1018	5.08607e+02	1.01800e+03	-3.60017e-02	5.08000e+02
1021	5.11741e+02	1.02100e+03	-3.60820e-02	5.11000e+02
1024	5.14891e+02	1.02400e+03	-3.61883e-02	5.14000e+02
1027	5.18263e+02	1.02700e+03	-3.63142e-02	5.17000e+02
1030	5.21489e+02	1.03000e+03	-3.64509e-02	5.20000e+02
1033	5.24940e+02	1.03300e+03	-3.65751e-02	5.23000e+02
1036	5.27800e+02	1.03600e+03	-3.67093e-02	5.26000e+02
1039	5.30536e+02	1.03900e+03	-3.68566e-02	5.29000e+02
1042	5.33215e+02	1.04200e+03	-3.70144e-02	5.32000e+02
1045	5.36037e+02	1.04500e+03	-3.71465e-02	5.35000e+02
1048	5.38999e+02	1.04800e+03	-3.72052e-02	5.38000e+02
1051	5.41930e+02	1.05100e+03	-3.72037e-02	5.41000e+02
1054	5.44951e+02	1.05400e+03	-3.72014e-02	5.44000e+02
1057	5.47815e+02	1.05700e+03	-3.73016e-02	5.47000e+02
1060	5.50662e+02	1.06000e+03	-3.74112e-02	5.50000e+02
1063	5.53533e+02	1.06300e+03	-3.74715e-02	5.53000e+02
1066	5.56465e+02	1.06600e+03	-3.74640e-02	5.56000e+02
1069	5.59456e+02	1.06900e+03	-3.74771e-02	5.59000e+02
1072	5.62429e+02	1.07200e+03	-3.75443e-02	5.62000e+02
1075	5.65414e+02	1.07500e+03	-3.76310e-02	5.65000e+02
1078	5.68361e+02	1.07800e+03	-3.77078e-02	5.68000e+02
1081	5.71335e+02	1.08100e+03	-3.77472e-02	5.71000e+02
1084	5.74228e+02	1.08400e+03	-3.77757e-02	5.74000e+02
1087	5.77087e+02	1.08700e+03	-3.78018e-02	5.77000e+02
1090	5.79961e+02	1.09000e+03	-3.78373e-02	5.80000e+02
1093	5.82827e+02	1.09300e+03	-3.78694e-02	5.83000e+02
1096	5.85712e+02	1.09600e+03	-3.78937e-02	5.86000e+02
1099	5.88568e+02	1.09900e+03	-3.79453e-02	5.89000e+02
1102	5.91446e+02	1.10200e+03	-3.80265e-02	5.92000e+02
1105	5.94311e+02	1.10500e+03	-3.80940e-02	5.95000e+02
1108	5.97216e+02	1.10800e+03	-3.81580e-02	5.98000e+02
1111	6.00126e+02	1.11100e+03	-3.82361e-02	6.01000e+02
1114	6.03046e+02	1.11400e+03	-3.83231e-02	6.04000e+02
1117	6.05974e+02	1.11700e+03	-3.83988e-02	6.07000e+02
1120	6.08916e+02	1.12000e+03	-3.84810e-02	6.10000e+02
1123	6.11861e+02	1.12300e+03	-3.85745e-02	6.13000e+02
1126	6.14839e+02	1.12600e+03	-3.86529e-02	6.16000e+02
1129	6.17758e+02	1.12900e+03	-3.86976e-02	6.19000e+02
1132	6.20734e+02	1.13200e+03	-3.87411e-02	6.22000e+02
1135	6.23714e+02	1.13500e+03	-3.87767e-02	6.25000e+02
1138	6.26701e+02	1.13800e+03	-3.88007e-02	6.28000e+02
1141	6.29697e+02	1.14100e+03	-3.88296e-02	6.31000e+02
1144	6.32660e+02	1.14400e+03	-3.88925e-02	6.34000e+02
1147	6.35858e+02	1.14700e+03	-3.89838e-02	6.37000e+02
1150	6.39070e+02	1.15000e+03	-3.91136e-02	6.40000e+02
1153	6.41756e+02	1.15300e+03	-3.92489e-02	6.43000e+02
1156	6.44642e+02	1.15600e+03	-3.93424e-02	6.46000e+02
1159	6.47585e+02	1.15900e+03	-3.93833e-02	6.49000e+02
1162	6.50523e+02	1.16200e+03	-3.93587e-02	6.52000e+02
1165	6.53469e+02	1.16500e+03	-3.93267e-02	6.55000e+02
1168	6.56401e+02	1.16800e+03	-3.93243e-02	6.58000e+02
1171	6.59327e+02	1.17100e+03	-3.93597e-02	6.61000e+02
1174	6.62340e+02	1.17400e+03	-3.94263e-02	6.64000e+02
1177	6.65372e+02	1.17700e+03	-3.94951e-02	6.67000e+02
1180	6.68353e+02	1.18000e+03	-3.95958e-02	6.70000e+02
1183	6.71382e+02	1.18300e+03	-3.97080e-02	6.73000e+02
1186	6.73174e+02	1.18600e+03	-3.97767e-02	6.76000e+02
1189	6.75225e+02	1.18900e+03	-3.97251e-02	6.79000e+02
1192	6.77452e+02	1.19200e+03	-3.96682e-02	6.82000e+02
1195	6.79436e+02	1.19500e+03	-3.96958e-02	6.85000e+02
1198	6.81128e+02	1.19800e+03	-3.98509e-02	6.88000e+02
1201	6.82584e+02	1.20100e+03	-4.00052e-02	6.91000e+02
1204	6.83986e+02	1.20400e+03	-4.00948e-02	6.94000e+02
1207	6.85272e+02	1.20700e+03	-4.01176e-02	6.97000e+02
1210	6.86377e+02	1.21000e+03	-4.00492e-02	7.00000e+02