Folder: Pyrolysis_BESKID/Experiments/TGA/TUBS/tga_nonisotherm (part 15)

File: tga_dynamic_n2_dyn60_powder_12mg_r2.txt
index	ts	t	weight	tr
[#]	[°C]	[s]	[mg]	[°C]
643	1.30646e+02	6.43000e+02	1.20568e+01	1.33000e+02
646	1.33711e+02	6.46000e+02	1.20565e+01	1.36000e+02
649	1.36790e+02	6.49000e+02	1.20561e+01	1.39000e+02
652	1.39838e+02	6.52000e+02	1.20556e+01	1.42000e+02
655	1.42903e+02	6.55000e+02	1.20549e+01	1.45000e+02
658	1.45961e+02	6.58000e+02	1.20538e+01	1.48000e+02
661	1.49018e+02	6.61000e+02	1.20524e+01	1.51000e+02
664	1.52073e+02	6.64000e+02	1.20505e+01	1.54000e+02
667	1.55120e+02	6.67000e+02	1.20481e+01	1.57000e+02
670	1.58183e+02	6.70000e+02	1.20450e+01	1.60000e+02
673	1.61224e+02	6.73000e+02	1.20412e+01	1.63000e+02
676	1.64281e+02	6.76000e+02	1.20370e+01	1.66000e+02
679	1.67310e+02	6.79000e+02	1.20323e+01	1.69000e+02
682	1.70348e+02	6.82000e+02	1.20270e+01	1.72000e+02
685	1.73400e+02	6.85000e+02	1.20210e+01	1.75000e+02
688	1.76430e+02	6.88000e+02	1.20140e+01	1.78000e+02
691	1.79474e+02	6.91000e+02	1.20058e+01	1.81000e+02
694	1.82504e+02	6.94000e+02	1.19957e+01	1.84000e+02
697	1.85527e+02	6.97000e+02	1.19834e+01	1.87000e+02
700	1.88561e+02	7.00000e+02	1.19685e+01	1.90000e+02
703	1.91605e+02	7.03000e+02	1.19509e+01	1.93000e+02
706	1.94622e+02	7.06000e+02	1.19289e+01	1.96000e+02
709	1.97642e+02	7.09000e+02	1.19031e+01	1.99000e+02
712	2.00675e+02	7.12000e+02	1.18738e+01	2.02000e+02
715	2.03700e+02	7.15000e+02	1.18418e+01	2.05000e+02
718	2.06742e+02	7.18000e+02	1.18064e+01	2.08000e+02
721	2.09791e+02	7.21000e+02	1.17700e+01	2.11000e+02
724	2.12834e+02	7.24000e+02	1.17337e+01	2.14000e+02
727	2.15902e+02	7.27000e+02	1.16986e+01	2.17000e+02
730	2.18978e+02	7.30000e+02	1.16668e+01	2.20000e+02
733	2.22033e+02	7.33000e+02	1.16392e+01	2.23000e+02
736	2.25094e+02	7.36000e+02	1.16161e+01	2.26000e+02
739	2.28159e+02	7.39000e+02	1.15966e+01	2.29000e+02
742	2.31211e+02	7.42000e+02	1.15819e+01	2.32000e+02
745	2.34279e+02	7.45000e+02	1.15696e+01	2.35000e+02
748	2.37346e+02	7.48000e+02	1.15588e+01	2.38000e+02
751	2.40406e+02	7.51000e+02	1.15488e+01	2.41000e+02
754	2.43436e+02	7.54000e+02	1.15394e+01	2.44000e+02
757	2.46487e+02	7.57000e+02	1.15299e+01	2.47000e+02
760	2.49512e+02	7.60000e+02	1.15204e+01	2.50000e+02
763	2.52489e+02	7.63000e+02	1.15110e+01	2.53000e+02
766	2.55501e+02	7.66000e+02	1.15017e+01	2.56000e+02
769	2.58543e+02	7.69000e+02	1.14927e+01	2.59000e+02
772	2.61594e+02	7.72000e+02	1.14840e+01	2.62000e+02
775	2.64591e+02	7.75000e+02	1.14757e+01	2.65000e+02
778	2.67614e+02	7.78000e+02	1.14677e+01	2.68000e+02
781	2.70628e+02	7.81000e+02	1.14600e+01	2.71000e+02
784	2.73647e+02	7.84000e+02	1.14523e+01	2.74000e+02
787	2.76696e+02	7.87000e+02	1.14446e+01	2.77000e+02
790	2.79740e+02	7.90000e+02	1.14366e+01	2.80000e+02
793	2.82769e+02	7.93000e+02	1.14281e+01	2.83000e+02
796	2.85794e+02	7.96000e+02	1.14189e+01	2.86000e+02
799	2.88795e+02	7.99000e+02	1.14086e+01	2.89000e+02
802	2.91813e+02	8.02000e+02	1.13966e+01	2.92000e+02
805	2.94863e+02	8.05000e+02	1.13826e+01	2.95000e+02
808	2.97959e+02	8.08000e+02	1.13663e+01	2.98000e+02
811	3.01052e+02	8.11000e+02	1.13478e+01	3.01000e+02
814	3.04114e+02	8.14000e+02	1.13254e+01	3.04000e+02
817	3.07163e+02	8.17000e+02	1.12995e+01	3.07000e+02
820	3.10192e+02	8.20000e+02	1.12700e+01	3.10000e+02
823	3.13261e+02	8.23000e+02	1.12374e+01	3.13000e+02
826	3.16355e+02	8.26000e+02	1.12001e+01	3.16000e+02
829	3.19422e+02	8.29000e+02	1.11594e+01	3.19000e+02
832	3.22490e+02	8.32000e+02	1.11158e+01	3.22000e+02
835	3.25564e+02	8.35000e+02	1.10698e+01	3.25000e+02
838	3.28646e+02	8.38000e+02	1.10209e+01	3.28000e+02
841	3.31698e+02	8.41000e+02	1.09698e+01	3.31000e+02
844	3.34714e+02	8.44000e+02	1.09161e+01	3.34000e+02
847	3.37741e+02	8.47000e+02	1.08593e+01	3.37000e+02
850	3.40767e+02	8.50000e+02	1.07975e+01	3.40000e+02
853	3.43799e+02	8.53000e+02	1.07280e+01	3.43000e+02
856	3.46828e+02	8.56000e+02	1.06488e+01	3.46000e+02
859	3.49855e+02	8.59000e+02	1.05576e+01	3.49000e+02
862	3.52884e+02	8.62000e+02	1.04517e+01	3.52000e+02
865	3.55861e+02	8.65000e+02	1.03269e+01	3.55000e+02
868	3.58832e+02	8.68000e+02	1.01827e+01	3.58000e+02
871	3.61764e+02	8.71000e+02	1.00187e+01	3.61000e+02
874	3.64693e+02	8.74000e+02	9.82942e+00	3.64000e+02
877	3.67610e+02	8.77000e+02	9.61753e+00	3.67000e+02
880	3.70539e+02	8.80000e+02	9.38066e+00	3.70000e+02
883	3.73465e+02	8.83000e+02	9.11766e+00	3.73000e+02
886	3.76336e+02	8.86000e+02	8.83031e+00	3.76000e+02
889	3.79162e+02	8.89000e+02	8.52157e+00	3.79000e+02
892	3.81975e+02	8.92000e+02	8.18952e+00	3.82000e+02
895	3.84812e+02	8.95000e+02	7.84076e+00	3.85000e+02
898	3.87693e+02	8.98000e+02	7.47792e+00	3.88000e+02
901	3.90605e+02	9.01000e+02	7.09911e+00	3.91000e+02
904	3.93444e+02	9.04000e+02	6.70545e+00	3.94000e+02
907	3.96340e+02	9.07000e+02	6.29935e+00	3.97000e+02
910	3.99233e+02	9.10000e+02	5.87863e+00	4.00000e+02
913	4.02198e+02	9.13000e+02	5.44766e+00	4.03000e+02
916	4.05116e+02	9.16000e+02	5.00205e+00	4.06000e+02
919	4.08026e+02	9.19000e+02	4.54693e+00	4.09000e+02
922	4.10960e+02	9.22000e+02	4.08519e+00	4.12000e+02
925	4.13935e+02	9.25000e+02	3.61601e+00	4.15000e+02
928	4.16981e+02	9.28000e+02	3.13783e+00	4.18000e+02
931	4.20193e+02	9.31000e+02	2.65625e+00	4.21000e+02
934	4.23494e+02	9.34000e+02	2.17373e+00	4.24000e+02
937	4.26942e+02	9.37000e+02	1.72050e+00	4.27000e+02
940	4.30457e+02	9.40000e+02	1.32384e+00	4.30000e+02
943	4.33862e+02	9.43000e+02	9.93632e-01	4.33000e+02
946	4.37227e+02	9.46000e+02	7.38141e-01	4.36000e+02
949	4.40540e+02	9.49000e+02	5.42293e-01	4.39000e+02
952	4.43967e+02	9.52000e+02	3.97784e-01	4.42000e+02
955	4.47247e+02	9.55000e+02	2.94139e-01	4.45000e+02
958	4.50733e+02	9.58000e+02	2.25949e-01	4.48000e+02
961	4.54010e+02	9.61000e+02	1.78519e-01	4.51000e+02
964	4.57178e+02	9.64000e+02	1.48323e-01	4.54000e+02
967	4.60191e+02	9.67000e+02	1.27780e-01	4.57000e+02
970	4.63181e+02	9.70000e+02	1.14567e-01	4.60000e+02
973	4.66244e+02	9.73000e+02	1.05913e-01	4.63000e+02
976	4.69249e+02	9.76000e+02	1.00097e-01	4.66000e+02
979	4.72266e+02	9.79000e+02	9.60721e-02	4.69000e+02
982	4.75402e+02	9.82000e+02	9.39654e-02	4.72000e+02
985	4.78596e+02	9.85000e+02	9.26968e-02	4.75000e+02
988	4.81525e+02	9.88000e+02	9.19755e-02	4.78000e+02
991	4.84330e+02	9.91000e+02	9.15028e-02	4.81000e+02
994	4.87160e+02	9.94000e+02	9.12107e-02	4.84000e+02
997	4.90038e+02	9.97000e+02	9.09453e-02	4.87000e+02
1000	4.93119e+02	1.00000e+03	9.07347e-02	4.90000e+02
1003	4.96080e+02	1.00300e+03	9.05748e-02	4.93000e+02
1006	4.99104e+02	1.00600e+03	9.04732e-02	4.96000e+02
1009	5.02154e+02	1.00900e+03	9.03772e-02	4.99000e+02
1012	5.05041e+02	1.01200e+03	9.02592e-02	5.02000e+02
1015	5.07791e+02	1.01500e+03	9.01186e-02	5.05000e+02
1018	5.10407e+02	1.01800e+03	8.99844e-02	5.08000e+02
1021	5.13123e+02	1.02100e+03	8.99044e-02	5.11000e+02
1024	5.15909e+02	1.02400e+03	8.98638e-02	5.14000e+02
1027	5.18640e+02	1.02700e+03	8.98397e-02	5.17000e+02
1030	5.21430e+02	1.03000e+03	8.98127e-02	5.20000e+02
1033	5.24328e+02	1.03300e+03	8.97394e-02	5.23000e+02
1036	5.27265e+02	1.03600e+03	8.96301e-02	5.26000e+02
1039	5.30257e+02	1.03900e+03	8.95234e-02	5.29000e+02
1042	5.33265e+02	1.04200e+03	8.94570e-02	5.32000e+02
1045	5.36189e+02	1.04500e+03	8.94348e-02	5.35000e+02
1048	5.39145e+02	1.04800e+03	8.94136e-02	5.38000e+02
1051	5.42174e+02	1.05100e+03	8.93559e-02	5.41000e+02
1054	5.45119e+02	1.05400e+03	8.92519e-02	5.44000e+02
1057	5.48016e+02	1.05700e+03	8.91500e-02	5.47000e+02
1060	5.50996e+02	1.06000e+03	8.90610e-02	5.50000e+02
1063	5.53865e+02	1.06300e+03	8.89925e-02	5.53000e+02
1066	5.56808e+02	1.06600e+03	8.89712e-02	5.56000e+02
1069	5.59761e+02	1.06900e+03	8.89970e-02	5.59000e+02
1072	5.63096e+02	1.07200e+03	8.90356e-02	5.62000e+02
1075	5.65927e+02	1.07500e+03	8.90349e-02	5.65000e+02
1078	5.68807e+02	1.07800e+03	8.89734e-02	5.68000e+02
1081	5.71670e+02	1.08100e+03	8.89180e-02	5.71000e+02
1084	5.74594e+02	1.08400e+03	8.88945e-02	5.74000e+02
1087	5.77577e+02	1.08700e+03	8.88612e-02	5.77000e+02
1090	5.80692e+02	1.09000e+03	8.88067e-02	5.80000e+02
1093	5.83857e+02	1.09300e+03	8.87721e-02	5.83000e+02
1096	5.87287e+02	1.09600e+03	8.87796e-02	5.86000e+02
1099	5.90261e+02	1.09900e+03	8.88002e-02	5.89000e+02
1102	5.93235e+02	1.10200e+03	8.88074e-02	5.92000e+02
1105	5.96206e+02	1.10500e+03	8.87666e-02	5.95000e+02
1108	5.99172e+02	1.10800e+03	8.87069e-02	5.98000e+02
1111	6.02152e+02	1.11100e+03	8.86590e-02	6.01000e+02
1114	6.05123e+02	1.11400e+03	8.86412e-02	6.04000e+02
1117	6.08014e+02	1.11700e+03	8.86406e-02	6.07000e+02
1120	6.10869e+02	1.12000e+03	8.86381e-02	6.10000e+02
1123	6.13725e+02	1.12300e+03	8.86308e-02	6.13000e+02
1126	6.16738e+02	1.12600e+03	8.86122e-02	6.16000e+02
1129	6.19689e+02	1.12900e+03	8.85755e-02	6.19000e+02
1132	6.22477e+02	1.13200e+03	8.85224e-02	6.22000e+02
1135	6.25385e+02	1.13500e+03	8.84704e-02	6.25000e+02
1138	6.28060e+02	1.13800e+03	8.84394e-02	6.28000e+02
1141	6.30873e+02	1.14100e+03	8.84443e-02	6.31000e+02
1144	6.33779e+02	1.14400e+03	8.84744e-02	6.34000e+02
1147	6.36642e+02	1.14700e+03	8.85043e-02	6.37000e+02
1150	6.39522e+02	1.15000e+03	8.85079e-02	6.40000e+02
1153	6.42406e+02	1.15300e+03	8.84752e-02	6.43000e+02
1156	6.45350e+02	1.15600e+03	8.84264e-02	6.46000e+02
1159	6.48314e+02	1.15900e+03	8.83634e-02	6.49000e+02
1162	6.51280e+02	1.16200e+03	8.82971e-02	6.52000e+02
1165	6.54235e+02	1.16500e+03	8.82508e-02	6.55000e+02
1168	6.57159e+02	1.16800e+03	8.82364e-02	6.58000e+02
1171	6.60103e+02	1.17100e+03	8.82588e-02	6.61000e+02
1174	6.63029e+02	1.17400e+03	8.83122e-02	6.64000e+02
1177	6.66001e+02	1.17700e+03	8.83363e-02	6.67000e+02
1180	6.68987e+02	1.18000e+03	8.83127e-02	6.70000e+02
1183	6.71974e+02	1.18300e+03	8.82813e-02	6.73000e+02
1186	6.73619e+02	1.18600e+03	8.83112e-02	6.76000e+02
1189	6.75465e+02	1.18900e+03	8.84702e-02	6.79000e+02
1192	6.77293e+02	1.19200e+03	8.86261e-02	6.82000e+02
1195	6.78966e+02	1.19500e+03	8.86988e-02	6.85000e+02
1198	6.80566e+02	1.19800e+03	8.86508e-02	6.88000e+02
1201	6.82077e+02	1.20100e+03	8.85872e-02	6.91000e+02
1204	6.83449e+02	1.20400e+03	8.85434e-02	6.94000e+02
1207	6.84746e+02	1.20700e+03	8.85271e-02	6.97000e+02
1210	6.85765e+02	1.21000e+03	8.85579e-02	7.00000e+02

File: tga_dynamic_n2_dyn120_piece_3mg_r1.txt
index	ts	t	weight	tr
[#]	[°C]	[s]	[mg]	[°C]
623	1.18649e+02	6.23000e+02	2.99792e+00	1.36000e+02
625	1.23536e+02	6.25000e+02	2.99786e+00	1.40000e+02
627	1.28058e+02	6.27000e+02	2.99777e+00	1.44000e+02
629	1.32430e+02	6.29000e+02	2.99768e+00	1.48000e+02
631	1.36970e+02	6.31000e+02	2.99755e+00	1.52000e+02
633	1.41544e+02	6.33000e+02	2.99758e+00	1.56000e+02
635	1.46125e+02	6.35000e+02	2.99736e+00	1.60000e+02
637	1.50703e+02	6.37000e+02	2.99713e+00	1.64000e+02
639	1.55249e+02	6.39000e+02	2.99669e+00	1.68000e+02
641	1.59768e+02	6.41000e+02	2.99616e+00	1.72000e+02
643	1.64263e+02	6.43000e+02	2.99558e+00	1.76000e+02
645	1.68729e+02	6.45000e+02	2.99503e+00	1.80000e+02
647	1.73161e+02	6.47000e+02	2.99448e+00	1.84000e+02
649	1.77582e+02	6.49000e+02	2.99404e+00	1.88000e+02
651	1.81968e+02	6.51000e+02	2.99362e+00	1.92000e+02
653	1.86328e+02	6.53000e+02	2.99329e+00	1.96000e+02
655	1.90683e+02	6.55000e+02	2.99291e+00	2.00000e+02
657	1.95010e+02	6.57000e+02	2.99252e+00	2.04000e+02
659	1.99325e+02	6.59000e+02	2.99209e+00	2.08000e+02
661	2.03615e+02	6.61000e+02	2.99154e+00	2.12000e+02
663	2.07894e+02	6.63000e+02	2.99090e+00	2.16000e+02
665	2.12159e+02	6.65000e+02	2.99005e+00	2.20000e+02
667	2.16417e+02	6.67000e+02	2.98913e+00	2.24000e+02
669	2.20649e+02	6.69000e+02	2.98794e+00	2.28000e+02
671	2.24887e+02	6.71000e+02	2.98668e+00	2.32000e+02
673	2.29104e+02	6.73000e+02	2.98516e+00	2.36000e+02
675	2.33311e+02	6.75000e+02	2.98361e+00	2.40000e+02
677	2.37505e+02	6.77000e+02	2.98187e+00	2.44000e+02
679	2.41668e+02	6.79000e+02	2.98011e+00	2.48000e+02
681	2.45817e+02	6.81000e+02	2.97822e+00	2.52000e+02
683	2.49965e+02	6.83000e+02	2.97631e+00	2.56000e+02
685	2.54102e+02	6.85000e+02	2.97427e+00	2.60000e+02
687	2.58219e+02	6.87000e+02	2.97220e+00	2.64000e+02
689	2.62322e+02	6.89000e+02	2.96997e+00	2.68000e+02
691	2.66404e+02	6.91000e+02	2.96769e+00	2.72000e+02
693	2.70508e+02	6.93000e+02	2.96525e+00	2.76000e+02
695	2.74613e+02	6.95000e+02	2.96278e+00	2.80000e+02
697	2.78717e+02	6.97000e+02	2.96015e+00	2.84000e+02
699	2.82845e+02	6.99000e+02	2.95747e+00	2.88000e+02
701	2.86935e+02	7.01000e+02	2.95455e+00	2.92000e+02
703	2.91038e+02	7.03000e+02	2.95150e+00	2.96000e+02
705	2.95148e+02	7.05000e+02	2.94806e+00	3.00000e+02
707	2.99255e+02	7.07000e+02	2.94445e+00	3.04000e+02
709	3.03361e+02	7.09000e+02	2.94032e+00	3.08000e+02
711	3.07525e+02	7.11000e+02	2.93603e+00	3.12000e+02
713	3.11600e+02	7.13000e+02	2.93108e+00	3.16000e+02
715	3.15679e+02	7.15000e+02	2.92583e+00	3.20000e+02
717	3.19757e+02	7.17000e+02	2.91962e+00	3.24000e+02
719	3.23820e+02	7.19000e+02	2.91305e+00	3.28000e+02
721	3.27877e+02	7.21000e+02	2.90527e+00	3.32000e+02
723	3.31954e+02	7.23000e+02	2.89717e+00	3.36000e+02
725	3.35991e+02	7.25000e+02	2.88772e+00	3.40000e+02
727	3.40034e+02	7.27000e+02	2.87778e+00	3.44000e+02
729	3.44095e+02	7.29000e+02	2.86593e+00	3.48000e+02
731	3.48110e+02	7.31000e+02	2.85310e+00	3.52000e+02
733	3.52134e+02	7.33000e+02	2.83721e+00	3.56000e+02
735	3.56158e+02	7.35000e+02	2.82032e+00	3.60000e+02
737	3.60130e+02	7.37000e+02	2.79804e+00	3.64000e+02
739	3.64066e+02	7.39000e+02	2.77113e+00	3.68000e+02
741	3.68013e+02	7.41000e+02	2.73481e+00	3.72000e+02
743	3.71971e+02	7.43000e+02	2.69103e+00	3.76000e+02
745	3.75939e+02	7.45000e+02	2.63572e+00	3.80000e+02
747	3.79857e+02	7.47000e+02	2.56837e+00	3.84000e+02
749	3.83797e+02	7.49000e+02	2.48553e+00	3.88000e+02
751	3.87676e+02	7.51000e+02	2.39156e+00	3.92000e+02
753	3.91590e+02	7.53000e+02	2.28707e+00	3.96000e+02
755	3.95441e+02	7.55000e+02	2.17150e+00	4.00000e+02
757	3.99332e+02	7.57000e+02	2.04536e+00	4.04000e+02
759	4.03240e+02	7.59000e+02	1.91238e+00	4.08000e+02
761	4.07164e+02	7.61000e+02	1.76884e+00	4.12000e+02
763	4.11058e+02	7.63000e+02	1.62033e+00	4.16000e+02
765	4.15024e+02	7.65000e+02	1.46568e+00	4.20000e+02
767	4.18948e+02	7.67000e+02	1.31033e+00	4.24000e+02
769	4.22918e+02	7.69000e+02	1.15085e+00	4.28000e+02
771	4.26988e+02	7.71000e+02	9.91051e-01	4.32000e+02
773	4.31097e+02	7.73000e+02	8.30064e-01	4.36000e+02
775	4.35307e+02	7.75000e+02	6.69390e-01	4.40000e+02
777	4.39497e+02	7.77000e+02	5.17240e-01	4.44000e+02
779	4.43770e+02	7.79000e+02	3.81493e-01	4.48000e+02
781	4.47983e+02	7.81000e+02	2.72883e-01	4.52000e+02
783	4.52256e+02	7.83000e+02	1.85703e-01	4.56000e+02
785	4.57049e+02	7.85000e+02	1.25695e-01	4.60000e+02
787	4.61151e+02	7.87000e+02	8.17284e-02	4.64000e+02
789	4.65074e+02	7.89000e+02	5.62477e-02	4.68000e+02
791	4.69202e+02	7.91000e+02	3.75014e-02	4.72000e+02
793	4.73226e+02	7.93000e+02	2.82125e-02	4.76000e+02
795	4.77394e+02	7.95000e+02	2.12918e-02	4.80000e+02
797	4.80982e+02	7.97000e+02	1.73444e-02	4.84000e+02
799	4.84379e+02	7.99000e+02	1.38569e-02	4.88000e+02
801	4.88175e+02	8.01000e+02	1.25211e-02	4.92000e+02
803	4.92076e+02	8.03000e+02	1.11248e-02	4.96000e+02
805	4.95983e+02	8.05000e+02	1.07259e-02	5.00000e+02
807	4.99948e+02	8.07000e+02	1.01964e-02	5.04000e+02
809	5.03901e+02	8.09000e+02	1.00359e-02	5.08000e+02
811	5.08107e+02	8.11000e+02	9.86937e-03	5.12000e+02
813	5.12679e+02	8.13000e+02	9.84046e-03	5.16000e+02
815	5.16254e+02	8.15000e+02	9.76020e-03	5.20000e+02
817	5.19553e+02	8.17000e+02	9.70365e-03	5.24000e+02
819	5.23386e+02	8.19000e+02	9.64696e-03	5.28000e+02
821	5.27276e+02	8.21000e+02	9.59005e-03	5.32000e+02
823	5.31079e+02	8.23000e+02	9.52804e-03	5.36000e+02
825	5.35126e+02	8.25000e+02	9.48401e-03	5.40000e+02
827	5.39646e+02	8.27000e+02	9.46130e-03	5.44000e+02
829	5.43344e+02	8.29000e+02	9.45998e-03	5.48000e+02
831	5.47145e+02	8.31000e+02	9.43058e-03	5.52000e+02
833	5.51026e+02	8.33000e+02	9.36029e-03	5.56000e+02
835	5.55017e+02	8.35000e+02	9.28518e-03	5.60000e+02
837	5.59054e+02	8.37000e+02	9.19617e-03	5.64000e+02
839	5.62808e+02	8.39000e+02	9.13831e-03	5.68000e+02
841	5.66682e+02	8.41000e+02	9.10967e-03	5.72000e+02
843	5.70780e+02	8.43000e+02	9.06850e-03	5.76000e+02
845	5.74582e+02	8.45000e+02	9.01883e-03	5.80000e+02
847	5.78388e+02	8.47000e+02	8.95088e-03	5.84000e+02
849	5.82596e+02	8.49000e+02	8.88282e-03	5.88000e+02
851	5.86049e+02	8.51000e+02	8.85217e-03	5.92000e+02
853	5.89831e+02	8.53000e+02	8.86296e-03	5.96000e+02
855	5.93666e+02	8.55000e+02	8.87183e-03	6.00000e+02
857	5.97527e+02	8.57000e+02	8.89411e-03	6.04000e+02
859	6.01451e+02	8.59000e+02	8.90670e-03	6.08000e+02
861	6.05442e+02	8.61000e+02	8.91902e-03	6.12000e+02
863	6.09657e+02	8.63000e+02	8.93914e-03	6.16000e+02
865	6.13594e+02	8.65000e+02	8.96099e-03	6.20000e+02
867	6.17617e+02	8.67000e+02	8.96219e-03	6.24000e+02
869	6.21610e+02	8.69000e+02	8.93376e-03	6.28000e+02
871	6.25629e+02	8.71000e+02	8.89490e-03	6.32000e+02
873	6.29513e+02	8.73000e+02	8.82858e-03	6.36000e+02
875	6.33531e+02	8.75000e+02	8.77693e-03	6.40000e+02
877	6.37433e+02	8.77000e+02	8.74373e-03	6.44000e+02
879	6.41406e+02	8.79000e+02	8.73893e-03	6.48000e+02
881	6.42871e+02	8.81000e+02	8.80421e-03	6.52000e+02
883	6.45461e+02	8.83000e+02	8.87745e-03	6.56000e+02
885	6.48211e+02	8.85000e+02	8.98664e-03	6.60000e+02
887	6.50743e+02	8.87000e+02	9.00368e-03	6.64000e+02
889	6.53175e+02	8.89000e+02	8.92664e-03	6.68000e+02
891	6.55464e+02	8.91000e+02	8.79813e-03	6.72000e+02
893	6.57578e+02	8.93000e+02	8.60953e-03	6.76000e+02
895	6.59578e+02	8.95000e+02	8.49697e-03	6.80000e+02
897	6.61602e+02	8.97000e+02	8.44324e-03	6.84000e+02
899	6.63522e+02	8.99000e+02	8.40092e-03	6.88000e+02
901	6.65351e+02	9.01000e+02	8.39349e-03	6.92000e+02
903	6.67060e+02	9.03000e+02	8.38795e-03	6.96000e+02
905	6.68674e+02	9.05000e+02	8.38637e-03	7.00000e+02

File: tga_dynamic_n2_dyn120_piece_3mg_r3.txt
index	ts	t	weight	tr
[#]	[°C]	[s]	[mg]	[°C]
623	1.17911e+02	6.23000e+02	3.01180e+00	1.36000e+02
625	1.22603e+02	6.25000e+02	3.01190e+00	1.40000e+02
627	1.27098e+02	6.27000e+02	3.01195e+00	1.44000e+02
629	1.31479e+02	6.29000e+02	3.01201e+00	1.48000e+02
631	1.35972e+02	6.31000e+02	3.01203e+00	1.52000e+02
633	1.40501e+02	6.33000e+02	3.01223e+00	1.56000e+02
635	1.45041e+02	6.35000e+02	3.01217e+00	1.60000e+02
637	1.49552e+02	6.37000e+02	3.01209e+00	1.64000e+02
639	1.54077e+02	6.39000e+02	3.01177e+00	1.68000e+02
641	1.58554e+02	6.41000e+02	3.01133e+00	1.72000e+02
643	1.63013e+02	6.43000e+02	3.01085e+00	1.76000e+02
645	1.67454e+02	6.45000e+02	3.01039e+00	1.80000e+02
647	1.71868e+02	6.47000e+02	3.00995e+00	1.84000e+02
649	1.76240e+02	6.49000e+02	3.00963e+00	1.88000e+02
651	1.80615e+02	6.51000e+02	3.00932e+00	1.92000e+02
653	1.84958e+02	6.53000e+02	3.00907e+00	1.96000e+02
655	1.89298e+02	6.55000e+02	3.00881e+00	2.00000e+02
657	1.93604e+02	6.57000e+02	3.00854e+00	2.04000e+02
659	1.97903e+02	6.59000e+02	3.00826e+00	2.08000e+02
661	2.02190e+02	6.61000e+02	3.00790e+00	2.12000e+02
663	2.06442e+02	6.63000e+02	3.00746e+00	2.16000e+02
665	2.10699e+02	6.65000e+02	3.00685e+00	2.20000e+02
667	2.14931e+02	6.67000e+02	3.00619e+00	2.24000e+02
669	2.19174e+02	6.69000e+02	3.00531e+00	2.28000e+02
671	2.23391e+02	6.71000e+02	3.00436e+00	2.32000e+02
673	2.27613e+02	6.73000e+02	3.00319e+00	2.36000e+02
675	2.31814e+02	6.75000e+02	3.00199e+00	2.40000e+02
677	2.35994e+02	6.77000e+02	3.00060e+00	2.44000e+02
679	2.40174e+02	6.79000e+02	2.99918e+00	2.48000e+02
681	2.44342e+02	6.81000e+02	2.99762e+00	2.52000e+02
683	2.48484e+02	6.83000e+02	2.99606e+00	2.56000e+02
685	2.52630e+02	6.85000e+02	2.99440e+00	2.60000e+02
687	2.56731e+02	6.87000e+02	2.99271e+00	2.64000e+02
689	2.60816e+02	6.89000e+02	2.99092e+00	2.68000e+02
691	2.64891e+02	6.91000e+02	2.98911e+00	2.72000e+02
693	2.68972e+02	6.93000e+02	2.98717e+00	2.76000e+02
695	2.73078e+02	6.95000e+02	2.98518e+00	2.80000e+02
697	2.77223e+02	6.97000e+02	2.98303e+00	2.84000e+02
699	2.81380e+02	6.99000e+02	2.98082e+00	2.88000e+02
701	2.85491e+02	7.01000e+02	2.97834e+00	2.92000e+02
703	2.89566e+02	7.03000e+02	2.97570e+00	2.96000e+02
705	2.93624e+02	7.05000e+02	2.97261e+00	3.00000e+02
707	2.97692e+02	7.07000e+02	2.96937e+00	3.04000e+02
709	3.01770e+02	7.09000e+02	2.96562e+00	3.08000e+02
711	3.05792e+02	7.11000e+02	2.96176e+00	3.12000e+02
713	3.09840e+02	7.13000e+02	2.95738e+00	3.16000e+02
715	3.13921e+02	7.15000e+02	2.95284e+00	3.20000e+02
717	3.17970e+02	7.17000e+02	2.94765e+00	3.24000e+02
719	3.22044e+02	7.19000e+02	2.94220e+00	3.28000e+02
721	3.26147e+02	7.21000e+02	2.93582e+00	3.32000e+02
723	3.30236e+02	7.23000e+02	2.92901e+00	3.36000e+02
725	3.34318e+02	7.25000e+02	2.92081e+00	3.40000e+02
727	3.38408e+02	7.27000e+02	2.91203e+00	3.44000e+02
729	3.42469e+02	7.29000e+02	2.90134e+00	3.48000e+02
731	3.46480e+02	7.31000e+02	2.88991e+00	3.52000e+02
733	3.50449e+02	7.33000e+02	2.87568e+00	3.56000e+02
735	3.54499e+02	7.35000e+02	2.86000e+00	3.60000e+02
737	3.58540e+02	7.37000e+02	2.84082e+00	3.64000e+02
739	3.62691e+02	7.39000e+02	2.81853e+00	3.68000e+02
741	3.66741e+02	7.41000e+02	2.78999e+00	3.72000e+02
743	3.70762e+02	7.43000e+02	2.75533e+00	3.76000e+02
745	3.74834e+02	7.45000e+02	2.71122e+00	3.80000e+02
747	3.78832e+02	7.47000e+02	2.65702e+00	3.84000e+02
749	3.82840e+02	7.49000e+02	2.59244e+00	3.88000e+02
751	3.86752e+02	7.51000e+02	2.51592e+00	3.92000e+02
753	3.90608e+02	7.53000e+02	2.42438e+00	3.96000e+02
755	3.94348e+02	7.55000e+02	2.32027e+00	4.00000e+02
757	3.98314e+02	7.57000e+02	2.20573e+00	4.04000e+02
759	4.02302e+02	7.59000e+02	2.08088e+00	4.08000e+02
761	4.06388e+02	7.61000e+02	1.94528e+00	4.12000e+02
763	4.10410e+02	7.63000e+02	1.80253e+00	4.16000e+02
765	4.14286e+02	7.65000e+02	1.64859e+00	4.20000e+02
767	4.18408e+02	7.67000e+02	1.48725e+00	4.24000e+02
769	4.22610e+02	7.69000e+02	1.31979e+00	4.28000e+02
771	4.26478e+02	7.71000e+02	1.14993e+00	4.32000e+02
773	4.30577e+02	7.73000e+02	9.79491e-01	4.36000e+02
775	4.34525e+02	7.75000e+02	8.10175e-01	4.40000e+02
777	4.38634e+02	7.77000e+02	6.43959e-01	4.44000e+02
779	4.42947e+02	7.79000e+02	4.88811e-01	4.48000e+02
781	4.47303e+02	7.81000e+02	3.55561e-01	4.52000e+02
783	4.51422e+02	7.83000e+02	2.43479e-01	4.56000e+02
785	4.55488e+02	7.85000e+02	1.62403e-01	4.60000e+02
787	4.59819e+02	7.87000e+02	1.01620e-01	4.64000e+02
789	4.64128e+02	7.89000e+02	6.40710e-02	4.68000e+02
791	4.68365e+02	7.91000e+02	3.89814e-02	4.72000e+02
793	4.71767e+02	7.93000e+02	2.45827e-02	4.76000e+02
795	4.75709e+02	7.95000e+02	1.49443e-02	4.80000e+02
797	4.79587e+02	7.97000e+02	1.09540e-02	4.84000e+02
799	4.83191e+02	7.99000e+02	6.74551e-03	4.88000e+02
801	4.87777e+02	8.01000e+02	5.31773e-03	4.92000e+02
803	4.91362e+02	8.03000e+02	3.74238e-03	4.96000e+02
805	4.95088e+02	8.05000e+02	3.38003e-03	5.00000e+02
807	4.98941e+02	8.07000e+02	2.88451e-03	5.04000e+02
809	5.02897e+02	8.09000e+02	2.81726e-03	5.08000e+02
811	5.07143e+02	8.11000e+02	2.69360e-03	5.12000e+02
813	5.12306e+02	8.13000e+02	2.68398e-03	5.16000e+02
815	5.15694e+02	8.15000e+02	2.62400e-03	5.20000e+02
817	5.18833e+02	8.17000e+02	2.54932e-03	5.24000e+02
819	5.22645e+02	8.19000e+02	2.47126e-03	5.28000e+02
821	5.26513e+02	8.21000e+02	2.37819e-03	5.32000e+02
823	5.30864e+02	8.23000e+02	2.30184e-03	5.36000e+02
825	5.34125e+02	8.25000e+02	2.26313e-03	5.40000e+02
827	5.37621e+02	8.27000e+02	2.24839e-03	5.44000e+02
829	5.41504e+02	8.29000e+02	2.27564e-03	5.48000e+02
831	5.45159e+02	8.31000e+02	2.28081e-03	5.52000e+02
833	5.49083e+02	8.33000e+02	2.28339e-03	5.56000e+02
835	5.52930e+02	8.35000e+02	2.28575e-03	5.60000e+02
837	5.56809e+02	8.37000e+02	2.27961e-03	5.64000e+02
839	5.60587e+02	8.39000e+02	2.27170e-03	5.68000e+02
841	5.64454e+02	8.41000e+02	2.25952e-03	5.72000e+02
843	5.68316e+02	8.43000e+02	2.24553e-03	5.76000e+02
845	5.72174e+02	8.45000e+02	2.21354e-03	5.80000e+02
847	5.75999e+02	8.47000e+02	2.16776e-03	5.84000e+02
849	5.79919e+02	8.49000e+02	2.10254e-03	5.88000e+02
851	5.83888e+02	8.51000e+02	2.05570e-03	5.92000e+02
853	5.87941e+02	8.53000e+02	2.02128e-03	5.96000e+02
855	5.91915e+02	8.55000e+02	1.99111e-03	6.00000e+02
857	5.95983e+02	8.57000e+02	1.98500e-03	6.04000e+02
859	6.00231e+02	8.59000e+02	1.99606e-03	6.08000e+02
861	6.04249e+02	8.61000e+02	2.03850e-03	6.12000e+02
863	6.08689e+02	8.63000e+02	2.07462e-03	6.16000e+02
865	6.12699e+02	8.65000e+02	2.11511e-03	6.20000e+02
867	6.16499e+02	8.67000e+02	2.14501e-03	6.24000e+02
869	6.20327e+02	8.69000e+02	2.15311e-03	6.28000e+02
871	6.24263e+02	8.71000e+02	2.15521e-03	6.32000e+02
873	6.28185e+02	8.73000e+02	2.13724e-03	6.36000e+02
875	6.32157e+02	8.75000e+02	2.12362e-03	6.40000e+02
877	6.36064e+02	8.77000e+02	2.10706e-03	6.44000e+02
879	6.40007e+02	8.79000e+02	2.10411e-03	6.48000e+02
881	6.41600e+02	8.81000e+02	2.15261e-03	6.52000e+02
883	6.44229e+02	8.83000e+02	2.21635e-03	6.56000e+02
885	6.47304e+02	8.85000e+02	2.30684e-03	6.60000e+02
887	6.50169e+02	8.87000e+02	2.30133e-03	6.64000e+02
889	6.52552e+02	8.89000e+02	2.20365e-03	6.68000e+02
891	6.54814e+02	8.91000e+02	2.06675e-03	6.72000e+02
893	6.56925e+02	8.93000e+02	1.86949e-03	6.76000e+02
895	6.58975e+02	8.95000e+02	1.72180e-03	6.80000e+02
897	6.60933e+02	8.97000e+02	1.62003e-03	6.84000e+02
899	6.62789e+02	8.99000e+02	1.54478e-03	6.88000e+02
901	6.64516e+02	9.01000e+02	1.52755e-03	6.92000e+02
903	6.66189e+02	9.03000e+02	1.52337e-03	6.96000e+02
905	6.67765e+02	9.05000e+02	1.54427e-03	7.00000e+02