Folder: Pyrolysis_BESKID/Experiments/TGA/TUBS/tga_nonisotherm (part 17)

File: tga_dynamic_n2high50_dyn30_powder_3mg_r3.txt
Index	Ts	t	Weight	Tr
[#]	[°C]	[s]	[mg]	[°C]
681	1.30112e+02	6.81000e+02	2.99863	130.5
691	1.35206e+02	6.91000e+02	2.99848	135.5
701	1.40264e+02	7.01000e+02	2.99775	140.5
711	1.45306e+02	7.11000e+02	2.99668	145.5
721	1.50344e+02	7.21000e+02	2.99503	150.5
731	1.55376e+02	7.31000e+02	2.99309	155.5
741	1.60418e+02	7.41000e+02	2.99078	160.5
751	1.65455e+02	7.51000e+02	2.988	165.5
761	1.70526e+02	7.61000e+02	2.98411	170.5
771	1.75603e+02	7.71000e+02	2.97866	175.5
781	1.80690e+02	7.81000e+02	2.97046	180.5
791	1.85755e+02	7.91000e+02	2.95854	185.5
801	1.90846e+02	8.01000e+02	2.94359	190.5
811	1.95952e+02	8.11000e+02	2.92644	195.5
821	2.01040e+02	8.21000e+02	2.90961	200.5
831	2.06137e+02	8.31000e+02	2.89611	205.5
841	2.11255e+02	8.41000e+02	2.88669	210.5
851	2.16354e+02	8.51000e+02	2.88084	215.5
861	2.21433e+02	8.61000e+02	2.87681	220.5
871	2.26487e+02	8.71000e+02	2.87321	225.5
881	2.31454e+02	8.81000e+02	2.86977	230.5
891	2.36474e+02	8.91000e+02	2.86629	235.5
901	2.41530e+02	9.01000e+02	2.86285	240.5
911	2.46557e+02	9.11000e+02	2.85963	245.5
921	2.51638e+02	9.21000e+02	2.85692	250.5
931	2.56777e+02	9.31000e+02	2.85448	255.5
941	2.62022e+02	9.41000e+02	2.85207	260.5
951	2.67221e+02	9.51000e+02	2.84986	265.5
961	2.72280e+02	9.61000e+02	2.8468	270.5
971	2.77336e+02	9.71000e+02	2.84366	275.5
981	2.82439e+02	9.81000e+02	2.83959	280.5
991	2.87549e+02	9.91000e+02	2.834	285.5
1001	2.92541e+02	1.00100e+03	2.82622	290.5
1011	2.97706e+02	1.01100e+03	2.81563	295.5
1021	3.02868e+02	1.02100e+03	2.80154	300.5
1031	3.07950e+02	1.03100e+03	2.78411	305.5
1041	3.13131e+02	1.04100e+03	2.76424	310.5
1051	3.18276e+02	1.05100e+03	2.74284	315.5
1061	3.23252e+02	1.06100e+03	2.72101	320.5
1071	3.28367e+02	1.07100e+03	2.6976	325.5
1081	3.33367e+02	1.08100e+03	2.66995	330.5
1091	3.38451e+02	1.09100e+03	2.63303	335.5
1101	3.43681e+02	1.10100e+03	2.58321	340.5
1111	3.48649e+02	1.11100e+03	2.51639	345.5
1121	3.53733e+02	1.12100e+03	2.42751	350.5
1131	3.58648e+02	1.13100e+03	2.31382	355.5
1141	3.63476e+02	1.14100e+03	2.17326	360.5
1151	3.68366e+02	1.15100e+03	2.0087	365.5
1161	3.73274e+02	1.16100e+03	1.82195	370.5
1171	3.78270e+02	1.17100e+03	1.61558	375.5
1181	3.83278e+02	1.18100e+03	1.3934	380.5
1191	3.88202e+02	1.19100e+03	1.16423	385.5
1201	3.93036e+02	1.20100e+03	0.941171	390.5
1211	3.97998e+02	1.21100e+03	0.728009	395.5
1221	4.03027e+02	1.22100e+03	0.538675	400.5
1231	4.08082e+02	1.23100e+03	0.384264	405.5
1241	4.13114e+02	1.24100e+03	0.268783	410.5
1251	4.18248e+02	1.25100e+03	0.185769	415.5
1261	4.23594e+02	1.26100e+03	0.131163	420.5
1271	4.28989e+02	1.27100e+03	0.0972859	425.5
1281	4.33996e+02	1.28100e+03	0.0786734	430.5
1291	4.38708e+02	1.29100e+03	0.0684186	435.5
1301	4.43662e+02	1.30100e+03	0.0629295	440.5
1311	4.48660e+02	1.31100e+03	0.0601557	445.5
1321	4.53704e+02	1.32100e+03	0.0587348	450.5
1331	4.58632e+02	1.33100e+03	0.0578579	455.5
1341	4.63296e+02	1.34100e+03	0.057775	460.5
1351	4.68094e+02	1.35100e+03	0.0574905	465.5
1361	4.72879e+02	1.36100e+03	0.057256	470.5
1371	4.77676e+02	1.37100e+03	0.0574036	475.5
1381	4.82483e+02	1.38100e+03	0.0572952	480.5
1391	4.87130e+02	1.39100e+03	0.0572293	485.5
1401	4.91989e+02	1.40100e+03	0.0568771	490.5
1411	4.96897e+02	1.41100e+03	0.0567382	495.5
1421	5.01923e+02	1.42100e+03	0.0567345	500.5
1431	5.07107e+02	1.43100e+03	0.0565782	505.5
1441	5.12230e+02	1.44100e+03	0.0565624	510.5
1451	5.17326e+02	1.45100e+03	0.056473	515.5
1461	5.22456e+02	1.46100e+03	0.0564639	520.5
1471	5.27194e+02	1.47100e+03	0.056401	525.5
1481	5.31859e+02	1.48100e+03	0.056372	530.5
1491	5.36594e+02	1.49100e+03	0.05626	535.5
1501	5.41406e+02	1.50100e+03	0.0563641	540.5
1511	5.46300e+02	1.51100e+03	0.0563348	545.5
1521	5.51244e+02	1.52100e+03	0.0563632	550.5
1531	5.56031e+02	1.53100e+03	0.0561934	555.5
1541	5.60723e+02	1.54100e+03	0.0560395	560.5
1551	5.65506e+02	1.55100e+03	0.0559122	565.5
1561	5.70316e+02	1.56100e+03	0.0560321	570.5
1571	5.75160e+02	1.57100e+03	0.0560462	575.5
1581	5.80057e+02	1.58100e+03	0.0560466	580.5
1591	5.84945e+02	1.59100e+03	0.0561022	585.5
1601	5.89841e+02	1.60100e+03	0.0560603	590.5
1611	5.94837e+02	1.61100e+03	0.056069	595.5
1621	6.00994e+02	1.62100e+03	0.0561089	600.5
1631	6.05808e+02	1.63100e+03	0.0561133	605.5
1641	6.10678e+02	1.64100e+03	0.0560943	610.5
1651	6.15560e+02	1.65100e+03	0.0560804	615.5
1661	6.20466e+02	1.66100e+03	0.0558813	620.5
1671	6.25210e+02	1.67100e+03	0.0560066	625.5
1681	6.29952e+02	1.68100e+03	0.0559594	630.5
1691	6.34824e+02	1.69100e+03	0.0558951	635.5
1701	6.39760e+02	1.70100e+03	0.055946	640.5
1711	6.44683e+02	1.71100e+03	0.0558589	645.5
1721	6.49629e+02	1.72100e+03	0.0558615	650.5
1731	6.54560e+02	1.73100e+03	0.0558967	655.5
1741	6.59509e+02	1.74100e+03	0.0559653	660.5
1751	6.64517e+02	1.75100e+03	0.0559493	665.5
1761	6.69488e+02	1.76100e+03	0.056068	670.5
1771	6.74447e+02	1.77100e+03	0.0560386	675.5
1781	6.79395e+02	1.78100e+03	0.0563425	680.5
1791	6.84311e+02	1.79100e+03	0.0561192	685.5
1801	6.87897e+02	1.80100e+03	0.0560752	690.5
1811	6.90798e+02	1.81100e+03	0.055997	695.5
1821	6.92909e+02	1.82100e+03	0.0560903	700.0
1831	6.94434e+02	1.83100e+03	0.0561002	700.0
1841	6.95587e+02	1.84100e+03	0.0561576	700.0
1851	6.96452e+02	1.85100e+03	0.0562988	700.0
1861	6.97120e+02	1.86100e+03	0.0562568	700.0
1871	6.97654e+02	1.87100e+03	0.056234	700.0
1881	6.98059e+02	1.88100e+03	0.0563015	700.0
1891	6.98376e+02	1.89100e+03	0.0563049	700.0
1901	6.98622e+02	1.90100e+03	0.0563938	700.0
1911	6.98818e+02	1.91100e+03	0.0563696	700.0
1921	6.98972e+02	1.92100e+03	0.0562241	700.0
1931	6.99091e+02	1.93100e+03	0.0562862	700.0
1941	6.99200e+02	1.94100e+03	0.0560659	700.0
1951	6.99292e+02	1.95100e+03	0.0560662	700.0
1961	6.99355e+02	1.96100e+03	0.0562963	700.0
1971	6.99422e+02	1.97100e+03	0.0563687	700.0
1981	6.99468e+02	1.98100e+03	0.0566056	700.0
1991	6.99504e+02	1.99100e+03	0.0564087	700.0
2001	6.99531e+02	2.00100e+03	0.0562448	700.0
2011	6.99549e+02	2.01100e+03	0.0562228	700.0
2021	6.99573e+02	2.02100e+03	0.0561931	700.0
2031	6.99586e+02	2.03100e+03	0.0561265	700.0
2041	6.99609e+02	2.04100e+03	0.0561747	700.0
2051	6.99617e+02	2.05100e+03	0.0562321	700.0
2061	6.99625e+02	2.06100e+03	0.0560909	700.0
2071	6.99618e+02	2.07100e+03	0.0561766	700.0
2081	6.99625e+02	2.08100e+03	0.0560947	700.0
2091	6.99636e+02	2.09100e+03	0.0562143	700.0
2101	6.99636e+02	2.10100e+03	0.0563456	700.0
2111	6.99634e+02	2.11100e+03	0.0562881	700.0
2121	6.99632e+02	2.12100e+03	0.0562416	700.0
2131	6.99633e+02	2.13100e+03	0.0561927	700.0
2141	6.99632e+02	2.14100e+03	0.0561483	700.0
2151	6.99627e+02	2.15100e+03	0.0560166	700.0
2161	6.99621e+02	2.16100e+03	0.0559824	700.0
2171	6.99629e+02	2.17100e+03	0.0560283	700.0
2181	6.99613e+02	2.18100e+03	0.0561191	700.0
2191	6.99622e+02	2.19100e+03	0.0560249	700.0
2201	6.99604e+02	2.20100e+03	0.0558995	700.0
2211	6.99605e+02	2.21100e+03	0.0559131	700.0
2221	6.99610e+02	2.22100e+03	0.0562175	700.0
2231	6.99599e+02	2.23100e+03	0.0559048	700.0
2241	6.99599e+02	2.24100e+03	0.0558324	700.0
2251	6.99603e+02	2.25100e+03	0.0559169	700.0
2261	6.99600e+02	2.26100e+03	0.0559752	700.0
2271	6.99592e+02	2.27100e+03	0.0558794	700.0
2281	6.99585e+02	2.28100e+03	0.0559494	700.0
2291	6.99584e+02	2.29100e+03	0.0560003	700.0
2301	6.99589e+02	2.30100e+03	0.0558653	700.0
2311	6.99575e+02	2.31100e+03	0.0558416	700.0
2321	6.99590e+02	2.32100e+03	0.0558907	700.0
2331	6.99565e+02	2.33100e+03	0.0560873	700.0
2341	6.99575e+02	2.34100e+03	0.0559602	700.0
2351	6.99570e+02	2.35100e+03	0.0559354	700.0
2361	6.99575e+02	2.36100e+03	0.0558883	700.0
2371	6.99577e+02	2.37100e+03	0.055777	700.0
2381	6.99563e+02	2.38100e+03	0.0558572	700.0
2391	6.99563e+02	2.39100e+03	0.0559126	700.0
2401	6.99569e+02	2.40100e+03	0.0557542	700.0
2411	6.99560e+02	2.41100e+03	0.0557125	700.0
2421	6.99561e+02	2.42100e+03	0.0558114	700.0
2431	6.99565e+02	2.43100e+03	0.0558322	700.0
2441	6.99561e+02	2.44100e+03	0.0557348	700.0
2451	6.99557e+02	2.45100e+03	0.0558279	700.0
2461	6.99558e+02	2.46100e+03	0.0558414	700.0
2471	6.99555e+02	2.47100e+03	0.0558258	700.0
2481	6.99565e+02	2.48100e+03	0.0557712	700.0
2491	6.99566e+02	2.49100e+03	0.0557534	700.0
2501	6.99565e+02	2.50100e+03	0.0557201	700.0
2511	6.99564e+02	2.51100e+03	0.0556773	700.0
2521	6.99565e+02	2.52100e+03	0.0556979	700.0
2531	6.99566e+02	2.53100e+03	0.0556287	700.0
2541	6.99564e+02	2.54100e+03	0.0555556	700.0
2551	6.99558e+02	2.55100e+03	0.0555136	700.0
2561	6.99564e+02	2.56100e+03	0.0556653	700.0
2571	6.99560e+02	2.57100e+03	0.0556021	700.0
2581	6.99564e+02	2.58100e+03	0.0554058	700.0
2591	6.99557e+02	2.59100e+03	0.0555242	700.0
2601	6.99560e+02	2.60100e+03	0.055598	700.0
2611	6.99551e+02	2.61100e+03	0.0554801	700.0
2621	6.99571e+02	2.62100e+03	0.0556522	700.0
2631	6.99566e+02	2.63100e+03	0.0555651	700.0
2641	6.99562e+02	2.64100e+03	0.0555512	700.0
2651	6.99564e+02	2.65100e+03	0.0556523	700.0
2661	6.99563e+02	2.66100e+03	0.0555103	700.0
2671	6.99561e+02	2.67100e+03	0.0556563	700.0
2681	6.99563e+02	2.68100e+03	0.0556177	700.0
2691	6.99564e+02	2.69100e+03	0.0554902	700.0
2701	6.99563e+02	2.70100e+03	0.0554607	700.0
2711	6.99572e+02	2.71100e+03	0.0555265	700.0
2720	6.99566e+02	2.72000e+03	0.0555662	700.0

File: tga_dynamic_n2high60_dyn30_piece_3mg_r1.txt
Index	Ts	t	Weight	Tr
[#]	[°C]	[s]	[mg]	[°C]
681	1.30049e+02	6.81000e+02	3.03607	130.5
691	1.35087e+02	6.91000e+02	3.036	135.5
701	1.40154e+02	7.01000e+02	3.03597	140.5
711	1.45197e+02	7.11000e+02	3.03562	145.5
721	1.50269e+02	7.21000e+02	3.03547	150.5
731	1.55321e+02	7.31000e+02	3.03531	155.5
741	1.60388e+02	7.41000e+02	3.03477	160.5
751	1.65460e+02	7.51000e+02	3.03444	165.5
761	1.70552e+02	7.61000e+02	3.0338	170.5
771	1.75642e+02	7.71000e+02	3.03323	175.5
781	1.80727e+02	7.81000e+02	3.03264	180.5
791	1.85806e+02	7.91000e+02	3.03173	185.5
801	1.90898e+02	8.01000e+02	3.0304	190.5
811	1.96005e+02	8.11000e+02	3.02863	195.5
821	2.01086e+02	8.21000e+02	3.02629	200.5
831	2.06200e+02	8.31000e+02	3.02322	205.5
841	2.11320e+02	8.41000e+02	3.01981	210.5
851	2.16438e+02	8.51000e+02	3.01633	215.5
861	2.21502e+02	8.61000e+02	3.01278	220.5
871	2.26604e+02	8.71000e+02	3.00931	225.5
881	2.31696e+02	8.81000e+02	3.00549	230.5
891	2.36839e+02	8.91000e+02	3.00154	235.5
901	2.41973e+02	9.01000e+02	2.99743	240.5
911	2.47096e+02	9.11000e+02	2.99347	245.5
921	2.52232e+02	9.21000e+02	2.98931	250.5
931	2.57390e+02	9.31000e+02	2.98499	255.5
941	2.62483e+02	9.41000e+02	2.98039	260.5
951	2.67529e+02	9.51000e+02	2.97545	265.5
961	2.72748e+02	9.61000e+02	2.97103	270.5
971	2.77971e+02	9.71000e+02	2.96584	275.5
981	2.83101e+02	9.81000e+02	2.95804	280.5
991	2.88161e+02	9.91000e+02	2.95078	285.5
1001	2.93238e+02	1.00100e+03	2.94199	290.5
1011	2.98306e+02	1.01100e+03	2.93331	295.5
1021	3.03315e+02	1.02100e+03	2.92336	300.5
1031	3.07928e+02	1.03100e+03	2.91204	305.5
1041	3.12302e+02	1.04100e+03	2.89893	310.5
1051	3.16773e+02	1.05100e+03	2.8836	315.5
1061	3.21552e+02	1.06100e+03	2.86548	320.5
1071	3.26495e+02	1.07100e+03	2.84675	325.5
1081	3.31508e+02	1.08100e+03	2.82777	330.5
1091	3.36561e+02	1.09100e+03	2.80631	335.5
1101	3.41791e+02	1.10100e+03	2.77908	340.5
1111	3.46850e+02	1.11100e+03	2.74384	345.5
1121	3.51885e+02	1.12100e+03	2.69514	350.5
1131	3.56784e+02	1.13100e+03	2.62833	355.5
1141	3.61725e+02	1.14100e+03	2.53286	360.5
1151	3.66695e+02	1.15100e+03	2.39823	365.5
1161	3.71667e+02	1.16100e+03	2.22197	370.5
1171	3.76744e+02	1.17100e+03	2.00711	375.5
1181	3.81721e+02	1.18100e+03	1.77049	380.5
1191	3.86709e+02	1.19100e+03	1.52432	385.5
1201	3.91774e+02	1.20100e+03	1.26702	390.5
1211	3.96741e+02	1.21100e+03	1.00904	395.5
1221	4.01773e+02	1.22100e+03	0.743903	400.5
1231	4.06928e+02	1.23100e+03	0.493776	405.5
1241	4.12082e+02	1.24100e+03	0.302653	410.5
1251	4.17063e+02	1.25100e+03	0.174562	415.5
1261	4.22040e+02	1.26100e+03	0.0988327	420.5
1271	4.27057e+02	1.27100e+03	0.0561367	425.5
1281	4.32162e+02	1.28100e+03	0.034642	430.5
1291	4.37143e+02	1.29100e+03	0.0232443	435.5
1301	4.42071e+02	1.30100e+03	0.0170844	440.5
1311	4.46957e+02	1.31100e+03	0.0134883	445.5
1321	4.51823e+02	1.32100e+03	0.0111708	450.5
1331	4.56580e+02	1.33100e+03	0.00995222	455.5
1341	4.61427e+02	1.34100e+03	0.00962284	460.5
1351	4.66320e+02	1.35100e+03	0.00942156	465.5
1361	4.71170e+02	1.36100e+03	0.00948525	470.5
1371	4.76044e+02	1.37100e+03	0.00935604	475.5
1381	4.80892e+02	1.38100e+03	0.00885429	480.5
1391	4.85844e+02	1.39100e+03	0.0087059	485.5
1401	4.90776e+02	1.40100e+03	0.00855936	490.5
1411	4.95715e+02	1.41100e+03	0.00843896	495.5
1421	5.00555e+02	1.42100e+03	0.00842714	500.5
1431	5.05487e+02	1.43100e+03	0.008143	505.5
1441	5.10382e+02	1.44100e+03	0.00794731	510.5
1451	5.15252e+02	1.45100e+03	0.00794915	515.5
1461	5.20174e+02	1.46100e+03	0.00783887	520.5
1471	5.25033e+02	1.47100e+03	0.00782025	525.5
1481	5.29933e+02	1.48100e+03	0.0076301	530.5
1491	5.34928e+02	1.49100e+03	0.00761951	535.5
1501	5.39994e+02	1.50100e+03	0.00749247	540.5
1511	5.45001e+02	1.51100e+03	0.00754675	545.5
1521	5.49969e+02	1.52100e+03	0.00734893	550.5
1531	5.55159e+02	1.53100e+03	0.00759415	555.5
1541	5.62930e+02	1.54100e+03	0.00754208	560.5
1551	5.67303e+02	1.55100e+03	0.00738205	565.5
1561	5.72118e+02	1.56100e+03	0.00735928	570.5
1571	5.76763e+02	1.57100e+03	0.00744071	575.5
1581	5.81575e+02	1.58100e+03	0.00747891	580.5
1591	5.86357e+02	1.59100e+03	0.0074344	585.5
1601	5.91205e+02	1.60100e+03	0.00753128	590.5
1611	5.96108e+02	1.61100e+03	0.00763156	595.5
1621	6.01090e+02	1.62100e+03	0.00756053	600.5
1631	6.05768e+02	1.63100e+03	0.007489	605.5
1641	6.10509e+02	1.64100e+03	0.00735199	610.5
1651	6.15333e+02	1.65100e+03	0.00742928	615.5
1661	6.20183e+02	1.66100e+03	0.00735759	620.5
1671	6.25464e+02	1.67100e+03	0.00742515	625.5
1681	6.31941e+02	1.68100e+03	0.00727681	630.5
1691	6.36527e+02	1.69100e+03	0.00734042	635.5
1701	6.41312e+02	1.70100e+03	0.00746753	640.5
1711	6.46168e+02	1.71100e+03	0.00733889	645.5
1721	6.51018e+02	1.72100e+03	0.00758012	650.5
1731	6.55853e+02	1.73100e+03	0.00737592	655.5
1741	6.60666e+02	1.74100e+03	0.00723121	660.5
1751	6.65528e+02	1.75100e+03	0.00736401	665.5
1761	6.70423e+02	1.76100e+03	0.00751586	670.5
1771	6.75318e+02	1.77100e+03	0.00750423	675.5
1781	6.80106e+02	1.78100e+03	0.00726462	680.5
1791	6.85072e+02	1.79100e+03	0.00715657	685.5
1801	6.88688e+02	1.80100e+03	0.00746257	690.5
1811	6.91448e+02	1.81100e+03	0.00728428	695.5
1821	6.93516e+02	1.82100e+03	0.00718688	700.0
1831	6.95035e+02	1.83100e+03	0.00713549	700.0
1841	6.96140e+02	1.84100e+03	0.00715006	700.0
1851	6.97006e+02	1.85100e+03	0.00722997	700.0
1861	6.97714e+02	1.86100e+03	0.00718393	700.0
1871	6.98267e+02	1.87100e+03	0.00707018	700.0
1881	6.98654e+02	1.88100e+03	0.00701447	700.0
1891	6.98941e+02	1.89100e+03	0.00719391	700.0
1901	6.99206e+02	1.90100e+03	0.00700776	700.0
1911	6.99383e+02	1.91100e+03	0.00703203	700.0
1921	6.99522e+02	1.92100e+03	0.006973	700.0
1931	6.99612e+02	1.93100e+03	0.00706337	700.0
1941	6.99685e+02	1.94100e+03	0.00714365	700.0
1951	6.99734e+02	1.95100e+03	0.00712444	700.0
1961	6.99777e+02	1.96100e+03	0.00699008	700.0
1971	6.99820e+02	1.97100e+03	0.0071003	700.0
1981	6.99838e+02	1.98100e+03	0.00713009	700.0
1991	6.99863e+02	1.99100e+03	0.00710537	700.0
2001	6.99872e+02	2.00100e+03	0.00711694	700.0
2011	6.99887e+02	2.01100e+03	0.0070703	700.0
2021	6.99894e+02	2.02100e+03	0.00724603	700.0
2031	6.99903e+02	2.03100e+03	0.00731365	700.0
2041	6.99897e+02	2.04100e+03	0.00735622	700.0
2051	6.99904e+02	2.05100e+03	0.0072677	700.0
2061	6.99894e+02	2.06100e+03	0.00717098	700.0
2071	6.99895e+02	2.07100e+03	0.00722456	700.0
2081	6.99894e+02	2.08100e+03	0.00725859	700.0
2091	6.99890e+02	2.09100e+03	0.00714341	700.0
2101	6.99888e+02	2.10100e+03	0.00708065	700.0
2111	6.99879e+02	2.11100e+03	0.00711047	700.0
2121	6.99866e+02	2.12100e+03	0.00715824	700.0
2131	6.99862e+02	2.13100e+03	0.00691571	700.0
2141	6.99854e+02	2.14100e+03	0.0069567	700.0
2151	6.99846e+02	2.15100e+03	0.00700437	700.0
2161	6.99836e+02	2.16100e+03	0.00696239	700.0
2171	6.99818e+02	2.17100e+03	0.00715784	700.0
2181	6.99811e+02	2.18100e+03	0.0070589	700.0
2191	6.99800e+02	2.19100e+03	0.00687247	700.0
2201	6.99790e+02	2.20100e+03	0.00704202	700.0
2211	6.99779e+02	2.21100e+03	0.00714332	700.0
2221	6.99771e+02	2.22100e+03	0.00713089	700.0
2231	6.99758e+02	2.23100e+03	0.00721356	700.0
2241	6.99754e+02	2.24100e+03	0.00692711	700.0
2251	6.99744e+02	2.25100e+03	0.00680641	700.0
2261	6.99727e+02	2.26100e+03	0.00686929	700.0
2271	6.99720e+02	2.27100e+03	0.00698676	700.0
2281	6.99706e+02	2.28100e+03	0.00709402	700.0
2291	6.99694e+02	2.29100e+03	0.00700641	700.0
2301	6.99700e+02	2.30100e+03	0.00689763	700.0
2311	6.99699e+02	2.31100e+03	0.00693772	700.0
2321	6.99687e+02	2.32100e+03	0.00700212	700.0
2331	6.99666e+02	2.33100e+03	0.00686897	700.0
2341	6.99670e+02	2.34100e+03	0.00686962	700.0
2351	6.99663e+02	2.35100e+03	0.0067421	700.0
2361	6.99673e+02	2.36100e+03	0.00694385	700.0
2371	6.99657e+02	2.37100e+03	0.00678648	700.0
2381	6.99646e+02	2.38100e+03	0.00687312	700.0
2391	6.99643e+02	2.39100e+03	0.00686731	700.0
2401	6.99642e+02	2.40100e+03	0.00681037	700.0
2411	6.99633e+02	2.41100e+03	0.00672641	700.0
2421	6.99630e+02	2.42100e+03	0.00690473	700.0
2431	6.99633e+02	2.43100e+03	0.00699354	700.0
2441	6.99622e+02	2.44100e+03	0.00696844	700.0
2451	6.99628e+02	2.45100e+03	0.00694605	700.0
2461	6.99623e+02	2.46100e+03	0.00700446	700.0
2471	6.99602e+02	2.47100e+03	0.00703007	700.0
2481	6.99612e+02	2.48100e+03	0.00692037	700.0
2491	6.99607e+02	2.49100e+03	0.00704259	700.0
2501	6.99586e+02	2.50100e+03	0.00694721	700.0
2511	6.99594e+02	2.51100e+03	0.00675452	700.0
2521	6.99583e+02	2.52100e+03	0.00692827	700.0
2531	6.99590e+02	2.53100e+03	0.00706926	700.0
2541	6.99584e+02	2.54100e+03	0.0068731	700.0
2551	6.99584e+02	2.55100e+03	0.00689648	700.0
2561	6.99587e+02	2.56100e+03	0.00683864	700.0
2571	6.99576e+02	2.57100e+03	0.00677199	700.0
2581	6.99570e+02	2.58100e+03	0.00681486	700.0
2591	6.99565e+02	2.59100e+03	0.00685026	700.0
2601	6.99562e+02	2.60100e+03	0.00680872	700.0
2611	6.99562e+02	2.61100e+03	0.00680415	700.0
2621	6.99562e+02	2.62100e+03	0.00689009	700.0
2631	6.99559e+02	2.63100e+03	0.00680578	700.0
2641	6.99552e+02	2.64100e+03	0.00696289	700.0
2651	6.99555e+02	2.65100e+03	0.00661419	700.0
2661	6.99546e+02	2.66100e+03	0.00663727	700.0
2671	6.99552e+02	2.67100e+03	0.00672611	700.0
2681	6.99537e+02	2.68100e+03	0.00666749	700.0
2691	6.99542e+02	2.69100e+03	0.00667245	700.0
2701	6.99537e+02	2.70100e+03	0.00668029	700.0
2711	6.99541e+02	2.71100e+03	0.00675669	700.0
2720	6.99539e+02	2.72000e+03	0.00670277	700.0