Folder: Pyrolysis_BESKID/Experiments/TGA/TUBS/tga_nonisotherm (part 18)

File: tga_dynamic_n2low20_dyn30_piece_3mg_r1.txt
Index	Ts	t	Weight	Tr
[#]	[°C]	[s]	[mg]	[°C]
681	1.30394e+02	6.81000e+02	3.02487	130.5
691	1.35477e+02	6.91000e+02	3.0247	135.5
701	1.40558e+02	7.01000e+02	3.02468	140.5
711	1.45629e+02	7.11000e+02	3.02409	145.5
721	1.50712e+02	7.21000e+02	3.02447	150.5
731	1.55787e+02	7.31000e+02	3.02384	155.5
741	1.60884e+02	7.41000e+02	3.02343	160.5
751	1.65956e+02	7.51000e+02	3.02302	165.5
761	1.71053e+02	7.61000e+02	3.02267	170.5
771	1.76160e+02	7.71000e+02	3.02211	175.5
781	1.81266e+02	7.81000e+02	3.02137	180.5
791	1.86360e+02	7.91000e+02	3.02061	185.5
801	1.91469e+02	8.01000e+02	3.01979	190.5
811	1.96581e+02	8.11000e+02	3.01832	195.5
821	2.01688e+02	8.21000e+02	3.01625	200.5
831	2.06820e+02	8.31000e+02	3.01353	205.5
841	2.11930e+02	8.41000e+02	3.01028	210.5
851	2.17059e+02	8.51000e+02	3.00677	215.5
861	2.22180e+02	8.61000e+02	3.00315	220.5
871	2.27300e+02	8.71000e+02	2.99977	225.5
881	2.32415e+02	8.81000e+02	2.99624	230.5
891	2.37530e+02	8.91000e+02	2.99241	235.5
901	2.42658e+02	9.01000e+02	2.98845	240.5
911	2.47831e+02	9.11000e+02	2.98422	245.5
921	2.52982e+02	9.21000e+02	2.98003	250.5
931	2.58153e+02	9.31000e+02	2.97575	255.5
941	2.63301e+02	9.41000e+02	2.97105	260.5
951	2.68517e+02	9.51000e+02	2.96617	265.5
961	2.73742e+02	9.61000e+02	2.96114	270.5
971	2.78852e+02	9.71000e+02	2.95542	275.5
981	2.84006e+02	9.81000e+02	2.94667	280.5
991	2.89087e+02	9.91000e+02	2.93726	285.5
1001	2.94124e+02	1.00100e+03	2.92733	290.5
1011	2.99202e+02	1.01100e+03	2.91778	295.5
1021	3.04299e+02	1.02100e+03	2.90686	300.5
1031	3.09307e+02	1.03100e+03	2.89421	305.5
1041	3.14294e+02	1.04100e+03	2.87937	310.5
1051	3.19167e+02	1.05100e+03	2.86263	315.5
1061	3.23947e+02	1.06100e+03	2.84419	320.5
1071	3.28690e+02	1.07100e+03	2.82486	325.5
1081	3.33082e+02	1.08100e+03	2.80304	330.5
1091	3.37978e+02	1.09100e+03	2.77791	335.5
1101	3.42943e+02	1.10100e+03	2.74765	340.5
1111	3.47897e+02	1.11100e+03	2.70884	345.5
1121	3.52835e+02	1.12100e+03	2.65581	350.5
1131	3.57835e+02	1.13100e+03	2.58213	355.5
1141	3.62763e+02	1.14100e+03	2.4771	360.5
1151	3.67958e+02	1.15100e+03	2.33939	365.5
1161	3.72861e+02	1.16100e+03	2.16764	370.5
1171	3.77721e+02	1.17100e+03	1.96448	375.5
1181	3.82635e+02	1.18100e+03	1.73247	380.5
1191	3.87576e+02	1.19100e+03	1.48153	385.5
1201	3.92646e+02	1.20100e+03	1.22388	390.5
1211	3.97649e+02	1.21100e+03	0.966372	395.5
1221	4.02722e+02	1.22100e+03	0.70876	400.5
1231	4.07965e+02	1.23100e+03	0.46641	405.5
1241	4.13090e+02	1.24100e+03	0.278703	410.5
1251	4.18132e+02	1.25100e+03	0.15345	415.5
1261	4.23270e+02	1.26100e+03	0.0800299	420.5
1271	4.28370e+02	1.27100e+03	0.0389621	425.5
1281	4.33366e+02	1.28100e+03	0.0176088	430.5
1291	4.38504e+02	1.29100e+03	0.00543392	435.5
1301	4.43554e+02	1.30100e+03	-0.00159001	440.5
1311	4.48599e+02	1.31100e+03	-0.00654862	445.5
1321	4.53839e+02	1.32100e+03	-0.00917476	450.5
1331	4.58734e+02	1.33100e+03	-0.0105179	455.5
1341	4.63751e+02	1.34100e+03	-0.0109397	460.5
1351	4.68662e+02	1.35100e+03	-0.0111216	465.5
1361	4.73593e+02	1.36100e+03	-0.011622	470.5
1371	4.78617e+02	1.37100e+03	-0.0117911	475.5
1381	4.83568e+02	1.38100e+03	-0.0118446	480.5
1391	4.88696e+02	1.39100e+03	-0.011894	485.5
1401	4.93667e+02	1.40100e+03	-0.0122691	490.5
1411	4.98572e+02	1.41100e+03	-0.0124401	495.5
1421	5.03393e+02	1.42100e+03	-0.0125137	500.5
1431	5.08157e+02	1.43100e+03	-0.0125714	505.5
1441	5.12902e+02	1.44100e+03	-0.0124683	510.5
1451	5.17645e+02	1.45100e+03	-0.0127019	515.5
1461	5.22523e+02	1.46100e+03	-0.0128106	520.5
1471	5.27703e+02	1.47100e+03	-0.0129139	525.5
1481	5.32241e+02	1.48100e+03	-0.0128202	530.5
1491	5.36924e+02	1.49100e+03	-0.0130189	535.5
1501	5.41735e+02	1.50100e+03	-0.0132178	540.5
1511	5.46540e+02	1.51100e+03	-0.0131776	545.5
1521	5.51378e+02	1.52100e+03	-0.0132815	550.5
1531	5.56252e+02	1.53100e+03	-0.0133565	555.5
1541	5.61107e+02	1.54100e+03	-0.0135006	560.5
1551	5.66038e+02	1.55100e+03	-0.0137825	565.5
1561	5.71008e+02	1.56100e+03	-0.0139399	570.5
1571	5.75994e+02	1.57100e+03	-0.0141958	575.5
1581	5.81212e+02	1.58100e+03	-0.0142517	580.5
1591	5.86335e+02	1.59100e+03	-0.0143349	585.5
1601	5.91231e+02	1.60100e+03	-0.0143984	590.5
1611	5.96158e+02	1.61100e+03	-0.014507	595.5
1621	6.01051e+02	1.62100e+03	-0.014257	600.5
1631	6.06002e+02	1.63100e+03	-0.0142408	605.5
1641	6.10946e+02	1.64100e+03	-0.0145874	610.5
1651	6.16010e+02	1.65100e+03	-0.0143928	615.5
1661	6.21064e+02	1.66100e+03	-0.0143339	620.5
1671	6.27263e+02	1.67100e+03	-0.0146024	625.5
1681	6.31453e+02	1.68100e+03	-0.0148206	630.5
1691	6.36175e+02	1.69100e+03	-0.0146751	635.5
1701	6.41075e+02	1.70100e+03	-0.0148674	640.5
1711	6.46004e+02	1.71100e+03	-0.0149862	645.5
1721	6.50911e+02	1.72100e+03	-0.0151065	650.5
1731	6.55840e+02	1.73100e+03	-0.0152965	655.5
1741	6.60760e+02	1.74100e+03	-0.0155666	660.5
1751	6.65703e+02	1.75100e+03	-0.0155444	665.5
1761	6.70683e+02	1.76100e+03	-0.0153385	670.5
1771	6.75701e+02	1.77100e+03	-0.0154373	675.5
1781	6.80686e+02	1.78100e+03	-0.0153031	680.5
1791	6.85700e+02	1.79100e+03	-0.015476	685.5
1801	6.89343e+02	1.80100e+03	-0.0154935	690.5
1811	6.92801e+02	1.81100e+03	-0.0156998	695.5
1821	6.94659e+02	1.82100e+03	-0.0155331	700.0
1831	6.96194e+02	1.83100e+03	-0.0154633	700.0
1841	6.97375e+02	1.84100e+03	-0.015732	700.0
1851	6.98238e+02	1.85100e+03	-0.0156058	700.0
1861	6.98878e+02	1.86100e+03	-0.0156654	700.0
1871	6.99378e+02	1.87100e+03	-0.015858	700.0
1881	6.99747e+02	1.88100e+03	-0.0158931	700.0
1891	7.00049e+02	1.89100e+03	-0.0158445	700.0
1901	7.00310e+02	1.90100e+03	-0.0158197	700.0
1911	7.00497e+02	1.91100e+03	-0.015774	700.0
1921	7.00660e+02	1.92100e+03	-0.0158783	700.0
1931	7.00786e+02	1.93100e+03	-0.0158752	700.0
1941	7.00887e+02	1.94100e+03	-0.0158889	700.0
1951	7.00975e+02	1.95100e+03	-0.0159216	700.0
1961	7.01039e+02	1.96100e+03	-0.015892	700.0
1971	7.01096e+02	1.97100e+03	-0.0160467	700.0
1981	7.01134e+02	1.98100e+03	-0.0161267	700.0
1991	7.01185e+02	1.99100e+03	-0.0163568	700.0
2001	7.01206e+02	2.00100e+03	-0.0164031	700.0
2011	7.01234e+02	2.01100e+03	-0.0164304	700.0
2021	7.01255e+02	2.02100e+03	-0.0163752	700.0
2031	7.01275e+02	2.03100e+03	-0.0165116	700.0
2041	7.01290e+02	2.04100e+03	-0.0165095	700.0
2051	7.01297e+02	2.05100e+03	-0.0165176	700.0
2061	7.01318e+02	2.06100e+03	-0.0165947	700.0
2071	7.01336e+02	2.07100e+03	-0.016657	700.0
2081	7.01336e+02	2.08100e+03	-0.0168674	700.0
2091	7.01344e+02	2.09100e+03	-0.0167939	700.0
2101	7.01346e+02	2.10100e+03	-0.0168965	700.0
2111	7.01345e+02	2.11100e+03	-0.0170062	700.0
2121	7.01352e+02	2.12100e+03	-0.0170078	700.0
2131	7.01348e+02	2.13100e+03	-0.0170398	700.0
2141	7.01344e+02	2.14100e+03	-0.0169885	700.0
2151	7.01345e+02	2.15100e+03	-0.0171165	700.0
2161	7.01348e+02	2.16100e+03	-0.0172402	700.0
2171	7.01355e+02	2.17100e+03	-0.0171125	700.0
2181	7.01339e+02	2.18100e+03	-0.0171518	700.0
2191	7.01321e+02	2.19100e+03	-0.0172736	700.0
2201	7.01332e+02	2.20100e+03	-0.0173044	700.0
2211	7.01325e+02	2.21100e+03	-0.0173359	700.0
2221	7.01332e+02	2.22100e+03	-0.0172069	700.0
2231	7.01325e+02	2.23100e+03	-0.0172869	700.0
2241	7.01310e+02	2.24100e+03	-0.0173619	700.0
2251	7.01309e+02	2.25100e+03	-0.0174709	700.0
2261	7.01305e+02	2.26100e+03	-0.0175463	700.0
2271	7.01300e+02	2.27100e+03	-0.0175245	700.0
2281	7.01302e+02	2.28100e+03	-0.0176451	700.0
2291	7.01297e+02	2.29100e+03	-0.0176459	700.0
2301	7.01293e+02	2.30100e+03	-0.0176839	700.0
2311	7.01286e+02	2.31100e+03	-0.0176065	700.0
2321	7.01288e+02	2.32100e+03	-0.0178478	700.0
2331	7.01286e+02	2.33100e+03	-0.017872	700.0
2341	7.01281e+02	2.34100e+03	-0.017913	700.0
2351	7.01276e+02	2.35100e+03	-0.0179681	700.0
2361	7.01266e+02	2.36100e+03	-0.017922	700.0
2371	7.01274e+02	2.37100e+03	-0.0177575	700.0
2381	7.01275e+02	2.38100e+03	-0.0178357	700.0
2391	7.01278e+02	2.39100e+03	-0.0181395	700.0
2401	7.01278e+02	2.40100e+03	-0.0181489	700.0
2411	7.01266e+02	2.41100e+03	-0.0179487	700.0
2421	7.01267e+02	2.42100e+03	-0.0180769	700.0
2431	7.01269e+02	2.43100e+03	-0.0184744	700.0
2441	7.01267e+02	2.44100e+03	-0.0180812	700.0
2451	7.01266e+02	2.45100e+03	-0.0180691	700.0
2461	7.01262e+02	2.46100e+03	-0.0181588	700.0
2471	7.01265e+02	2.47100e+03	-0.0181396	700.0
2481	7.01259e+02	2.48100e+03	-0.0180166	700.0
2491	7.01269e+02	2.49100e+03	-0.0181596	700.0
2501	7.01264e+02	2.50100e+03	-0.0180952	700.0
2511	7.01256e+02	2.51100e+03	-0.0180676	700.0
2521	7.01254e+02	2.52100e+03	-0.0181813	700.0
2531	7.01247e+02	2.53100e+03	-0.0181504	700.0
2541	7.01238e+02	2.54100e+03	-0.0180243	700.0
2551	7.01240e+02	2.55100e+03	-0.0180585	700.0
2561	7.01241e+02	2.56100e+03	-0.0181463	700.0
2571	7.01224e+02	2.57100e+03	-0.018254	700.0
2581	7.01235e+02	2.58100e+03	-0.0182421	700.0
2591	7.01227e+02	2.59100e+03	-0.0181693	700.0
2601	7.01233e+02	2.60100e+03	-0.0182979	700.0
2611	7.01234e+02	2.61100e+03	-0.0182314	700.0
2621	7.01229e+02	2.62100e+03	-0.0182659	700.0
2631	7.01226e+02	2.63100e+03	-0.0183712	700.0
2641	7.01225e+02	2.64100e+03	-0.0181963	700.0
2651	7.01230e+02	2.65100e+03	-0.0181137	700.0
2661	7.01234e+02	2.66100e+03	-0.0183296	700.0
2671	7.01231e+02	2.67100e+03	-0.0184504	700.0
2681	7.01225e+02	2.68100e+03	-0.0184232	700.0
2691	7.01222e+02	2.69100e+03	-0.0181924	700.0
2701	7.01231e+02	2.70100e+03	-0.018188	700.0
2711	7.01221e+02	2.71100e+03	-0.0182295	700.0
2720	7.01219e+02	2.72000e+03	-0.0183278	700.0

File: tga_dynamic_n2low20_dyn30_powder_3mg_r3.txt
Index	Ts	t	Weight	Tr
[#]	[°C]	[s]	[mg]	[°C]
680	1.30273e+02	6.80000e+02	3.03773	130.0
690	1.35388e+02	6.90000e+02	3.03717	135.0
700	1.40474e+02	7.00000e+02	3.03653	140.0
710	1.45565e+02	7.10000e+02	3.03507	145.0
720	1.50650e+02	7.20000e+02	3.03409	150.0
730	1.55736e+02	7.30000e+02	3.03188	155.0
740	1.60818e+02	7.40000e+02	3.02968	160.0
750	1.65901e+02	7.50000e+02	3.02741	165.0
760	1.70994e+02	7.60000e+02	3.02503	170.0
770	1.76109e+02	7.70000e+02	3.02232	175.0
780	1.81220e+02	7.80000e+02	3.01877	180.0
790	1.86329e+02	7.90000e+02	3.01448	185.0
800	1.91443e+02	8.00000e+02	3.00839	190.0
810	1.96595e+02	8.10000e+02	3.00053	195.0
820	2.01723e+02	8.20000e+02	2.99151	200.0
830	2.06862e+02	8.30000e+02	2.9833	205.0
840	2.11975e+02	8.40000e+02	2.97725	210.0
850	2.17130e+02	8.50000e+02	2.97325	215.0
860	2.22238e+02	8.60000e+02	2.97021	220.0
870	2.27404e+02	8.70000e+02	2.96751	225.0
880	2.32581e+02	8.80000e+02	2.96487	230.0
890	2.37778e+02	8.90000e+02	2.96191	235.0
900	2.42932e+02	9.00000e+02	2.95847	240.0
910	2.48093e+02	9.10000e+02	2.95506	245.0
920	2.53186e+02	9.20000e+02	2.95181	250.0
930	2.58267e+02	9.30000e+02	2.94887	255.0
940	2.63390e+02	9.40000e+02	2.94597	260.0
950	2.68389e+02	9.50000e+02	2.94301	265.0
960	2.73498e+02	9.60000e+02	2.93993	270.0
970	2.78585e+02	9.70000e+02	2.93619	275.0
980	2.83686e+02	9.80000e+02	2.93143	280.0
990	2.88694e+02	9.90000e+02	2.92523	285.0
1000	2.93735e+02	1.00000e+03	2.91612	290.0
1010	2.98892e+02	1.01000e+03	2.90401	295.0
1020	3.04049e+02	1.02000e+03	2.88768	300.0
1030	3.09037e+02	1.03000e+03	2.86753	305.0
1040	3.13876e+02	1.04000e+03	2.84406	310.0
1050	3.18438e+02	1.05000e+03	2.81838	315.0
1060	3.23098e+02	1.06000e+03	2.79161	320.0
1070	3.27955e+02	1.07000e+03	2.7623	325.0
1080	3.32796e+02	1.08000e+03	2.72783	330.0
1090	3.37767e+02	1.09000e+03	2.68447	335.0
1100	3.42808e+02	1.10000e+03	2.62744	340.0
1110	3.47864e+02	1.11000e+03	2.5517	345.0
1120	3.52875e+02	1.12000e+03	2.45293	350.0
1130	3.57849e+02	1.13000e+03	2.32937	355.0
1140	3.62807e+02	1.14000e+03	2.17862	360.0
1150	3.67794e+02	1.15000e+03	2.00446	365.0
1160	3.72785e+02	1.16000e+03	1.80745	370.0
1170	3.77716e+02	1.17000e+03	1.59137	375.0
1180	3.82725e+02	1.18000e+03	1.36131	380.0
1190	3.87716e+02	1.19000e+03	1.12695	385.0
1200	3.92772e+02	1.20000e+03	0.900953	390.0
1210	3.97864e+02	1.21000e+03	0.685703	395.0
1220	4.02951e+02	1.22000e+03	0.49602	400.0
1230	4.08106e+02	1.23000e+03	0.343596	405.0
1240	4.13251e+02	1.24000e+03	0.230323	410.0
1250	4.18282e+02	1.25000e+03	0.150735	415.0
1260	4.23287e+02	1.26000e+03	0.0985702	420.0
1270	4.28577e+02	1.27000e+03	0.0665746	425.0
1280	4.33605e+02	1.28000e+03	0.0492826	430.0
1290	4.38594e+02	1.29000e+03	0.0399953	435.0
1300	4.43620e+02	1.30000e+03	0.0354368	440.0
1310	4.48466e+02	1.31000e+03	0.0326972	445.0
1320	4.53326e+02	1.32000e+03	0.0315547	450.0
1330	4.58242e+02	1.33000e+03	0.0309766	455.0
1340	4.63179e+02	1.34000e+03	0.030895	460.0
1350	4.68187e+02	1.35000e+03	0.0307596	465.0
1360	4.73088e+02	1.36000e+03	0.0304853	470.0
1370	4.77995e+02	1.37000e+03	0.0304699	475.0
1380	4.82825e+02	1.38000e+03	0.0305343	480.0
1390	4.87800e+02	1.39000e+03	0.0305483	485.0
1400	4.92829e+02	1.40000e+03	0.0303434	490.0
1410	4.97765e+02	1.41000e+03	0.030125	495.0
1420	5.03158e+02	1.42000e+03	0.0300997	500.0
1430	5.07876e+02	1.43000e+03	0.0300625	505.0
1440	5.12701e+02	1.44000e+03	0.0301179	510.0
1450	5.17570e+02	1.45000e+03	0.0301077	515.0
1460	5.22400e+02	1.46000e+03	0.0298261	520.0
1470	5.27345e+02	1.47000e+03	0.0296819	525.0
1480	5.32188e+02	1.48000e+03	0.0298182	530.0
1490	5.37115e+02	1.49000e+03	0.0296692	535.0
1500	5.41929e+02	1.50000e+03	0.0294854	540.0
1510	5.46805e+02	1.51000e+03	0.0295607	545.0
1520	5.51815e+02	1.52000e+03	0.0295778	550.0
1530	5.56666e+02	1.53000e+03	0.0295098	555.0
1540	5.61319e+02	1.54000e+03	0.0293517	560.0
1550	5.66152e+02	1.55000e+03	0.029195	565.0
1560	5.71064e+02	1.56000e+03	0.0290077	570.0
1570	5.75976e+02	1.57000e+03	0.0288168	575.0
1580	5.80929e+02	1.58000e+03	0.0287857	580.0
1590	5.85826e+02	1.59000e+03	0.0286384	585.0
1600	5.90774e+02	1.60000e+03	0.028587	590.0
1610	5.95686e+02	1.61000e+03	0.0284953	595.0
1620	6.00575e+02	1.62000e+03	0.0286811	600.0
1630	6.05537e+02	1.63000e+03	0.0286958	605.0
1640	6.10518e+02	1.64000e+03	0.0282306	610.0
1650	6.15609e+02	1.65000e+03	0.0284316	615.0
1660	6.20317e+02	1.66000e+03	0.0284365	620.0
1670	6.25228e+02	1.67000e+03	0.0281542	625.0
1680	6.30154e+02	1.68000e+03	0.0280834	630.0
1690	6.35065e+02	1.69000e+03	0.0281897	635.0
1700	6.39988e+02	1.70000e+03	0.0280603	640.0
1710	6.44912e+02	1.71000e+03	0.0277244	645.0
1720	6.49857e+02	1.72000e+03	0.0278302	650.0
1730	6.54779e+02	1.73000e+03	0.0276777	655.0
1740	6.59720e+02	1.74000e+03	0.0273594	660.0
1750	6.64665e+02	1.75000e+03	0.0273258	665.0
1760	6.69592e+02	1.76000e+03	0.0275393	670.0
1770	6.74543e+02	1.77000e+03	0.0275514	675.0
1780	6.79490e+02	1.78000e+03	0.0276121	680.0
1790	6.84447e+02	1.79000e+03	0.0275847	685.0
1800	6.88143e+02	1.80000e+03	0.0276904	690.0
1810	6.91141e+02	1.81000e+03	0.0274357	695.0
1820	6.93321e+02	1.82000e+03	0.0274568	700.0
1830	6.94939e+02	1.83000e+03	0.0276308	700.0
1840	6.96134e+02	1.84000e+03	0.0273521	700.0
1850	6.97022e+02	1.85000e+03	0.0274169	700.0
1860	6.97715e+02	1.86000e+03	0.0274383	700.0
1870	6.98270e+02	1.87000e+03	0.0274013	700.0
1880	6.98682e+02	1.88000e+03	0.0271969	700.0
1890	6.99021e+02	1.89000e+03	0.0273384	700.0
1900	6.99269e+02	1.90000e+03	0.0273189	700.0
1910	6.99481e+02	1.91000e+03	0.0272998	700.0
1920	6.99657e+02	1.92000e+03	0.0273238	700.0
1930	6.99792e+02	1.93000e+03	0.0272053	700.0
1940	6.99903e+02	1.94000e+03	0.0271433	700.0
1950	6.99992e+02	1.95000e+03	0.0270857	700.0
1960	7.00073e+02	1.96000e+03	0.0271686	700.0
1970	7.00132e+02	1.97000e+03	0.027129	700.0
1980	7.00186e+02	1.98000e+03	0.026993	700.0
1990	7.00231e+02	1.99000e+03	0.0268043	700.0
2000	7.00270e+02	2.00000e+03	0.0267229	700.0
2010	7.00306e+02	2.01000e+03	0.0267575	700.0
2020	7.00334e+02	2.02000e+03	0.0268523	700.0
2030	7.00369e+02	2.03000e+03	0.0266951	700.0
2040	7.00391e+02	2.04000e+03	0.0266211	700.0
2050	7.00407e+02	2.05000e+03	0.0265338	700.0
2060	7.00425e+02	2.06000e+03	0.0264737	700.0
2070	7.00458e+02	2.07000e+03	0.0264936	700.0
2080	7.00468e+02	2.08000e+03	0.0263852	700.0
2090	7.00460e+02	2.09000e+03	0.0263304	700.0
2100	7.00480e+02	2.10000e+03	0.0261807	700.0
2110	7.00491e+02	2.11000e+03	0.02607	700.0
2120	7.00493e+02	2.12000e+03	0.0261035	700.0
2130	7.00487e+02	2.13000e+03	0.0259892	700.0
2140	7.00492e+02	2.14000e+03	0.0260956	700.0
2150	7.00499e+02	2.15000e+03	0.0259798	700.0
2160	7.00495e+02	2.16000e+03	0.0258091	700.0
2170	7.00501e+02	2.17000e+03	0.0260235	700.0
2180	7.00488e+02	2.18000e+03	0.0261358	700.0
2190	7.00493e+02	2.19000e+03	0.0260855	700.0
2200	7.00490e+02	2.20000e+03	0.0260387	700.0
2210	7.00491e+02	2.21000e+03	0.0261561	700.0
2220	7.00469e+02	2.22000e+03	0.0261602	700.0
2230	7.00482e+02	2.23000e+03	0.0261856	700.0
2240	7.00471e+02	2.24000e+03	0.0261697	700.0
2250	7.00461e+02	2.25000e+03	0.0260298	700.0
2260	7.00460e+02	2.26000e+03	0.0259842	700.0
2270	7.00463e+02	2.27000e+03	0.0259652	700.0
2280	7.00459e+02	2.28000e+03	0.0257555	700.0
2290	7.00451e+02	2.29000e+03	0.0259559	700.0
2300	7.00450e+02	2.30000e+03	0.0259813	700.0
2310	7.00442e+02	2.31000e+03	0.0261235	700.0
2320	7.00442e+02	2.32000e+03	0.0259916	700.0
2330	7.00437e+02	2.33000e+03	0.0260212	700.0
2340	7.00424e+02	2.34000e+03	0.0259689	700.0
2350	7.00436e+02	2.35000e+03	0.0258831	700.0
2360	7.00436e+02	2.36000e+03	0.0258483	700.0
2370	7.00427e+02	2.37000e+03	0.0260087	700.0
2380	7.00432e+02	2.38000e+03	0.0259841	700.0
2390	7.00421e+02	2.39000e+03	0.0257866	700.0
2400	7.00420e+02	2.40000e+03	0.0258672	700.0
2410	7.00425e+02	2.41000e+03	0.025914	700.0
2420	7.00414e+02	2.42000e+03	0.0259672	700.0
2430	7.00417e+02	2.43000e+03	0.0254966	700.0
2440	7.00410e+02	2.44000e+03	0.0259325	700.0
2450	7.00408e+02	2.45000e+03	0.0261384	700.0
2460	7.00409e+02	2.46000e+03	0.0259396	700.0
2470	7.00408e+02	2.47000e+03	0.0258791	700.0
2480	7.00402e+02	2.48000e+03	0.0260323	700.0
2490	7.00404e+02	2.49000e+03	0.025969	700.0
2500	7.00389e+02	2.50000e+03	0.0259667	700.0
2510	7.00395e+02	2.51000e+03	0.0260566	700.0
2520	7.00394e+02	2.52000e+03	0.0260661	700.0
2530	7.00393e+02	2.53000e+03	0.0261038	700.0
2540	7.00398e+02	2.54000e+03	0.0261366	700.0
2550	7.00388e+02	2.55000e+03	0.0260848	700.0
2560	7.00397e+02	2.56000e+03	0.0260597	700.0
2570	7.00398e+02	2.57000e+03	0.0259942	700.0
2580	7.00393e+02	2.58000e+03	0.0259629	700.0
2590	7.00384e+02	2.59000e+03	0.0259392	700.0
2600	7.00391e+02	2.60000e+03	0.0258158	700.0
2610	7.00385e+02	2.61000e+03	0.0257226	700.0
2620	7.00380e+02	2.62000e+03	0.0256547	700.0
2630	7.00391e+02	2.63000e+03	0.0256635	700.0
2640	7.00386e+02	2.64000e+03	0.0258606	700.0
2650	7.00384e+02	2.65000e+03	0.025943	700.0
2660	7.00386e+02	2.66000e+03	0.0259143	700.0
2670	7.00384e+02	2.67000e+03	0.025808	700.0
2680	7.00385e+02	2.68000e+03	0.0258699	700.0
2690	7.00383e+02	2.69000e+03	0.025938	700.0
2700	7.00383e+02	2.70000e+03	0.0259782	700.0
2710	7.00383e+02	2.71000e+03	0.025916	700.0
2720	7.00390e+02	2.72000e+03	0.02582	700.0