Folder: Pyrolysis_BESKID/Experiments/TGA/TUBS/tga_nonisotherm (part 16)

File: tga_dynamic_n2high50_dyn30_powder_3mg_r1.txt
Index	Ts	t	Weight	Tr
[#]	[°C]	[s]	[mg]	[°C]
681	1.30102e+02	6.81000e+02	2.96888	130.5
691	1.35128e+02	6.91000e+02	2.96863	135.5
701	1.40146e+02	7.01000e+02	2.96796	140.5
711	1.45208e+02	7.11000e+02	2.96698	145.5
721	1.50267e+02	7.21000e+02	2.96541	150.5
731	1.55316e+02	7.31000e+02	2.96366	155.5
741	1.60375e+02	7.41000e+02	2.96138	160.5
751	1.65431e+02	7.51000e+02	2.95869	165.5
761	1.70492e+02	7.61000e+02	2.9553	170.5
771	1.75563e+02	7.71000e+02	2.95085	175.5
781	1.80624e+02	7.81000e+02	2.94401	180.5
791	1.85700e+02	7.91000e+02	2.93387	185.5
801	1.90793e+02	8.01000e+02	2.92029	190.5
811	1.95850e+02	8.11000e+02	2.90444	195.5
821	2.00962e+02	8.21000e+02	2.88841	200.5
831	2.06056e+02	8.31000e+02	2.87508	205.5
841	2.11190e+02	8.41000e+02	2.86568	210.5
851	2.16390e+02	8.51000e+02	2.85979	215.5
861	2.21544e+02	8.61000e+02	2.85568	220.5
871	2.26647e+02	8.71000e+02	2.85213	225.5
881	2.31712e+02	8.81000e+02	2.84869	230.5
891	2.36819e+02	8.91000e+02	2.84509	235.5
901	2.41928e+02	9.01000e+02	2.84148	240.5
911	2.47091e+02	9.11000e+02	2.83809	245.5
921	2.52220e+02	9.21000e+02	2.83549	250.5
931	2.57471e+02	9.31000e+02	2.83287	255.5
941	2.62647e+02	9.41000e+02	2.83042	260.5
951	2.67769e+02	9.51000e+02	2.82831	265.5
961	2.72876e+02	9.61000e+02	2.82529	270.5
971	2.77959e+02	9.71000e+02	2.82211	275.5
981	2.83022e+02	9.81000e+02	2.81814	280.5
991	2.88093e+02	9.91000e+02	2.81273	285.5
1001	2.93138e+02	1.00100e+03	2.80531	290.5
1011	2.98111e+02	1.01100e+03	2.79503	295.5
1021	3.03009e+02	1.02100e+03	2.78131	300.5
1031	3.07802e+02	1.03100e+03	2.76395	305.5
1041	3.12667e+02	1.04100e+03	2.74392	310.5
1051	3.17641e+02	1.05100e+03	2.72189	315.5
1061	3.22643e+02	1.06100e+03	2.69789	320.5
1071	3.27674e+02	1.07100e+03	2.6718	325.5
1081	3.32664e+02	1.08100e+03	2.64314	330.5
1091	3.37667e+02	1.09100e+03	2.60687	335.5
1101	3.42654e+02	1.10100e+03	2.55802	340.5
1111	3.47642e+02	1.11100e+03	2.4926	345.5
1121	3.52628e+02	1.12100e+03	2.40474	350.5
1131	3.57560e+02	1.13100e+03	2.29161	355.5
1141	3.62461e+02	1.14100e+03	2.15098	360.5
1151	3.67392e+02	1.15100e+03	1.98567	365.5
1161	3.72357e+02	1.16100e+03	1.79738	370.5
1171	3.77395e+02	1.17100e+03	1.58869	375.5
1181	3.82412e+02	1.18100e+03	1.36603	380.5
1191	3.87373e+02	1.19100e+03	1.13801	385.5
1201	3.92386e+02	1.20100e+03	0.919217	390.5
1211	3.97349e+02	1.21100e+03	0.710096	395.5
1221	4.02376e+02	1.22100e+03	0.522125	400.5
1231	4.07420e+02	1.23100e+03	0.367839	405.5
1241	4.12518e+02	1.24100e+03	0.252946	410.5
1251	4.17561e+02	1.25100e+03	0.170187	415.5
1261	4.22606e+02	1.26100e+03	0.115855	420.5
1271	4.27610e+02	1.27100e+03	0.082344	425.5
1281	4.32586e+02	1.28100e+03	0.0636338	430.5
1291	4.37535e+02	1.29100e+03	0.0532563	435.5
1301	4.42484e+02	1.30100e+03	0.0478245	440.5
1311	4.47413e+02	1.31100e+03	0.0451114	445.5
1321	4.52329e+02	1.32100e+03	0.0435079	450.5
1331	4.57256e+02	1.33100e+03	0.0427625	455.5
1341	4.62173e+02	1.34100e+03	0.0424832	460.5
1351	4.67112e+02	1.35100e+03	0.0421751	465.5
1361	4.71993e+02	1.36100e+03	0.0417492	470.5
1371	4.76874e+02	1.37100e+03	0.0416492	475.5
1381	4.81783e+02	1.38100e+03	0.0414956	480.5
1391	4.86683e+02	1.39100e+03	0.041296	485.5
1401	4.91585e+02	1.40100e+03	0.0408002	490.5
1411	4.96495e+02	1.41100e+03	0.040513	495.5
1421	5.01367e+02	1.42100e+03	0.0404822	500.5
1431	5.06234e+02	1.43100e+03	0.0403769	505.5
1441	5.11126e+02	1.44100e+03	0.0400683	510.5
1451	5.15998e+02	1.45100e+03	0.0399699	515.5
1461	5.20914e+02	1.46100e+03	0.0398673	520.5
1471	5.25819e+02	1.47100e+03	0.0397398	525.5
1481	5.30718e+02	1.48100e+03	0.0394475	530.5
1491	5.35642e+02	1.49100e+03	0.0391677	535.5
1501	5.40571e+02	1.50100e+03	0.0391227	540.5
1511	5.45504e+02	1.51100e+03	0.0389349	545.5
1521	5.50430e+02	1.52100e+03	0.0387679	550.5
1531	5.55339e+02	1.53100e+03	0.0386481	555.5
1541	5.60248e+02	1.54100e+03	0.0384959	560.5
1551	5.65169e+02	1.55100e+03	0.0382709	565.5
1561	5.70074e+02	1.56100e+03	0.0383724	570.5
1571	5.75015e+02	1.57100e+03	0.0384093	575.5
1581	5.80026e+02	1.58100e+03	0.0382919	580.5
1591	5.84966e+02	1.59100e+03	0.0383055	585.5
1601	5.89951e+02	1.60100e+03	0.0383243	590.5
1611	5.95050e+02	1.61100e+03	0.0383367	595.5
1621	6.01205e+02	1.62100e+03	0.0383405	600.5
1631	6.06203e+02	1.63100e+03	0.0383143	605.5
1641	6.11044e+02	1.64100e+03	0.038288	610.5
1651	6.15939e+02	1.65100e+03	0.038348	615.5
1661	6.20870e+02	1.66100e+03	0.0382282	620.5
1671	6.25760e+02	1.67100e+03	0.0382599	625.5
1681	6.30765e+02	1.68100e+03	0.0382337	630.5
1691	6.35711e+02	1.69100e+03	0.0382911	635.5
1701	6.40659e+02	1.70100e+03	0.0382223	640.5
1711	6.45593e+02	1.71100e+03	0.0380912	645.5
1721	6.50596e+02	1.72100e+03	0.0381632	650.5
1731	6.55538e+02	1.73100e+03	0.0380602	655.5
1741	6.60509e+02	1.74100e+03	0.038116	660.5
1751	6.65408e+02	1.75100e+03	0.0380118	665.5
1761	6.70328e+02	1.76100e+03	0.0381068	670.5
1771	6.75277e+02	1.77100e+03	0.038045	675.5
1781	6.80178e+02	1.78100e+03	0.0385287	680.5
1791	6.85095e+02	1.79100e+03	0.0383458	685.5
1801	6.88713e+02	1.80100e+03	0.0381878	690.5
1811	6.91555e+02	1.81100e+03	0.0379926	695.5
1821	6.93697e+02	1.82100e+03	0.0381548	700.0
1831	6.95244e+02	1.83100e+03	0.0381358	700.0
1841	6.96312e+02	1.84100e+03	0.0380722	700.0
1851	6.97157e+02	1.85100e+03	0.038079	700.0
1861	6.97801e+02	1.86100e+03	0.0380433	700.0
1871	6.98330e+02	1.87100e+03	0.0380172	700.0
1881	6.98725e+02	1.88100e+03	0.0380957	700.0
1891	6.99027e+02	1.89100e+03	0.0380589	700.0
1901	6.99268e+02	1.90100e+03	0.0380718	700.0
1911	6.99453e+02	1.91100e+03	0.0380859	700.0
1921	6.99616e+02	1.92100e+03	0.0380554	700.0
1931	6.99735e+02	1.93100e+03	0.0380618	700.0
1941	6.99839e+02	1.94100e+03	0.0378786	700.0
1951	6.99914e+02	1.95100e+03	0.0379357	700.0
1961	6.99965e+02	1.96100e+03	0.0381267	700.0
1971	7.00013e+02	1.97100e+03	0.0380763	700.0
1981	7.00055e+02	1.98100e+03	0.0383445	700.0
1991	7.00088e+02	1.99100e+03	0.0380765	700.0
2001	7.00111e+02	2.00100e+03	0.0378698	700.0
2011	7.00125e+02	2.01100e+03	0.0379824	700.0
2021	7.00141e+02	2.02100e+03	0.0378718	700.0
2031	7.00145e+02	2.03100e+03	0.0377324	700.0
2041	7.00157e+02	2.04100e+03	0.0377889	700.0
2051	7.00169e+02	2.05100e+03	0.0379067	700.0
2061	7.00176e+02	2.06100e+03	0.0378498	700.0
2071	7.00189e+02	2.07100e+03	0.0378626	700.0
2081	7.00191e+02	2.08100e+03	0.0377956	700.0
2091	7.00189e+02	2.09100e+03	0.0378957	700.0
2101	7.00192e+02	2.10100e+03	0.0380764	700.0
2111	7.00182e+02	2.11100e+03	0.0379664	700.0
2121	7.00186e+02	2.12100e+03	0.0380098	700.0
2131	7.00193e+02	2.13100e+03	0.0379095	700.0
2141	7.00183e+02	2.14100e+03	0.0378904	700.0
2151	7.00185e+02	2.15100e+03	0.037847	700.0
2161	7.00186e+02	2.16100e+03	0.0377708	700.0
2171	7.00177e+02	2.17100e+03	0.0377983	700.0
2181	7.00175e+02	2.18100e+03	0.0378027	700.0
2191	7.00172e+02	2.19100e+03	0.0377964	700.0
2201	7.00163e+02	2.20100e+03	0.0376744	700.0
2211	7.00158e+02	2.21100e+03	0.0376537	700.0
2221	7.00149e+02	2.22100e+03	0.0379184	700.0
2231	7.00149e+02	2.23100e+03	0.0376744	700.0
2241	7.00137e+02	2.24100e+03	0.0375565	700.0
2251	7.00140e+02	2.25100e+03	0.0376009	700.0
2261	7.00132e+02	2.26100e+03	0.0377699	700.0
2271	7.00129e+02	2.27100e+03	0.0376112	700.0
2281	7.00120e+02	2.28100e+03	0.0376521	700.0
2291	7.00126e+02	2.29100e+03	0.0377467	700.0
2301	7.00109e+02	2.30100e+03	0.0374508	700.0
2311	7.00119e+02	2.31100e+03	0.037562	700.0
2321	7.00111e+02	2.32100e+03	0.0376597	700.0
2331	7.00107e+02	2.33100e+03	0.0376881	700.0
2341	7.00100e+02	2.34100e+03	0.0376622	700.0
2351	7.00106e+02	2.35100e+03	0.0376483	700.0
2361	7.00101e+02	2.36100e+03	0.0377357	700.0
2371	7.00094e+02	2.37100e+03	0.0375559	700.0
2381	7.00091e+02	2.38100e+03	0.0376324	700.0
2391	7.00088e+02	2.39100e+03	0.0377716	700.0
2401	7.00094e+02	2.40100e+03	0.0376599	700.0
2411	7.00092e+02	2.41100e+03	0.0376775	700.0
2421	7.00081e+02	2.42100e+03	0.0376727	700.0
2431	7.00083e+02	2.43100e+03	0.0376619	700.0
2441	7.00072e+02	2.44100e+03	0.0375999	700.0
2451	7.00071e+02	2.45100e+03	0.0376496	700.0
2461	7.00073e+02	2.46100e+03	0.0376855	700.0
2471	7.00064e+02	2.47100e+03	0.0375871	700.0
2481	7.00061e+02	2.48100e+03	0.0376401	700.0
2491	7.00066e+02	2.49100e+03	0.0375494	700.0
2501	7.00061e+02	2.50100e+03	0.0375808	700.0
2511	7.00051e+02	2.51100e+03	0.0375921	700.0
2521	7.00059e+02	2.52100e+03	0.0376435	700.0
2531	7.00046e+02	2.53100e+03	0.0376036	700.0
2541	7.00042e+02	2.54100e+03	0.0376721	700.0
2551	7.00053e+02	2.55100e+03	0.0376883	700.0
2561	7.00046e+02	2.56100e+03	0.037905	700.0
2571	7.00042e+02	2.57100e+03	0.0378065	700.0
2581	7.00047e+02	2.58100e+03	0.0375814	700.0
2591	7.00033e+02	2.59100e+03	0.0377733	700.0
2601	7.00027e+02	2.60100e+03	0.0378055	700.0
2611	7.00020e+02	2.61100e+03	0.0376207	700.0
2621	7.00023e+02	2.62100e+03	0.0376937	700.0
2631	7.00021e+02	2.63100e+03	0.0376776	700.0
2641	7.00022e+02	2.64100e+03	0.0376268	700.0
2651	7.00019e+02	2.65100e+03	0.0377273	700.0
2661	7.00017e+02	2.66100e+03	0.0376604	700.0
2671	7.00026e+02	2.67100e+03	0.0377879	700.0
2681	7.00015e+02	2.68100e+03	0.037792	700.0
2691	7.00015e+02	2.69100e+03	0.0376332	700.0
2701	7.00015e+02	2.70100e+03	0.0377251	700.0
2711	7.00016e+02	2.71100e+03	0.0376907	700.0
2720	7.00003e+02	2.72000e+03	0.0377101	700.0

File: tga_dynamic_n2high50_dyn30_powder_3mg_r2.txt
Index	Ts	t	Weight	Tr
[#]	[°C]	[s]	[mg]	[°C]
682	1.30468e+02	6.82000e+02	3.02956	131.0
692	1.35394e+02	6.92000e+02	3.02919	136.0
702	1.40397e+02	7.02000e+02	3.02844	141.0
712	1.45409e+02	7.12000e+02	3.02753	146.0
722	1.50427e+02	7.22000e+02	3.02574	151.0
732	1.55435e+02	7.32000e+02	3.02384	156.0
742	1.60462e+02	7.42000e+02	3.02132	161.0
752	1.65502e+02	7.52000e+02	3.01828	166.0
762	1.70545e+02	7.62000e+02	3.01433	171.0
772	1.75605e+02	7.72000e+02	3.0088	176.0
782	1.80658e+02	7.82000e+02	3.00047	181.0
792	1.85754e+02	7.92000e+02	2.98811	186.0
802	1.90830e+02	8.02000e+02	2.97264	191.0
812	1.95905e+02	8.12000e+02	2.95502	196.0
822	2.01005e+02	8.22000e+02	2.93812	201.0
832	2.06111e+02	8.32000e+02	2.92451	206.0
842	2.11210e+02	8.42000e+02	2.91492	211.0
852	2.16313e+02	8.52000e+02	2.90892	216.0
862	2.21427e+02	8.62000e+02	2.90478	221.0
872	2.26547e+02	8.72000e+02	2.90116	226.0
882	2.31590e+02	8.82000e+02	2.89757	231.0
892	2.36710e+02	8.92000e+02	2.89396	236.0
902	2.41713e+02	9.02000e+02	2.89028	241.0
912	2.46748e+02	9.12000e+02	2.8871	246.0
922	2.51845e+02	9.22000e+02	2.88435	251.0
932	2.57070e+02	9.32000e+02	2.88184	256.0
942	2.62214e+02	9.42000e+02	2.87936	261.0
952	2.67278e+02	9.52000e+02	2.87697	266.0
962	2.72418e+02	9.62000e+02	2.87396	271.0
972	2.77549e+02	9.72000e+02	2.87063	276.0
982	2.82625e+02	9.82000e+02	2.86641	281.0
992	2.87721e+02	9.92000e+02	2.86058	286.0
1002	2.92828e+02	1.00200e+03	2.85244	291.0
1012	2.97989e+02	1.01200e+03	2.84143	296.0
1022	3.03131e+02	1.02200e+03	2.8269	301.0
1032	3.08301e+02	1.03200e+03	2.80881	306.0
1042	3.13281e+02	1.04200e+03	2.7882	311.0
1052	3.18317e+02	1.05200e+03	2.76606	316.0
1062	3.23408e+02	1.06200e+03	2.74342	321.0
1072	3.28338e+02	1.07200e+03	2.71912	326.0
1082	3.33351e+02	1.08200e+03	2.69058	331.0
1092	3.38432e+02	1.09200e+03	2.65198	336.0
1102	3.43409e+02	1.10200e+03	2.60031	341.0
1112	3.48262e+02	1.11200e+03	2.53031	346.0
1122	3.53328e+02	1.12200e+03	2.43777	351.0
1132	3.58295e+02	1.13200e+03	2.31829	356.0
1142	3.63403e+02	1.14200e+03	2.17161	361.0
1152	3.68375e+02	1.15200e+03	1.99854	366.0
1162	3.73372e+02	1.16200e+03	1.80228	371.0
1172	3.78501e+02	1.17200e+03	1.58513	376.0
1182	3.83526e+02	1.18200e+03	1.35504	381.0
1192	3.88773e+02	1.19200e+03	1.1205	386.0
1202	3.93884e+02	1.20200e+03	0.889543	391.0
1212	3.98931e+02	1.21200e+03	0.6703	396.0
1222	4.04036e+02	1.22200e+03	0.47224	401.0
1232	4.09244e+02	1.23200e+03	0.310726	406.0
1242	4.14437e+02	1.24200e+03	0.190374	411.0
1252	4.19108e+02	1.25200e+03	0.105817	416.0
1262	4.24016e+02	1.26200e+03	0.0501017	421.0
1272	4.29175e+02	1.27200e+03	0.0168956	426.0
1282	4.34232e+02	1.28200e+03	-0.0018736	431.0
1292	4.39187e+02	1.29200e+03	-0.0118177	436.0
1302	4.44164e+02	1.30200e+03	-0.0170729	441.0
1312	4.49170e+02	1.31200e+03	-0.0198386	446.0
1322	4.54060e+02	1.32200e+03	-0.0213822	451.0
1332	4.58887e+02	1.33200e+03	-0.0221516	456.0
1342	4.63667e+02	1.34200e+03	-0.0222589	461.0
1352	4.68504e+02	1.35200e+03	-0.0226111	466.0
1362	4.73352e+02	1.36200e+03	-0.0230115	471.0
1372	4.78175e+02	1.37200e+03	-0.0229142	476.0
1382	4.83056e+02	1.38200e+03	-0.0229102	481.0
1392	4.87859e+02	1.39200e+03	-0.0230935	486.0
1402	4.92821e+02	1.40200e+03	-0.023522	491.0
1412	4.97705e+02	1.41200e+03	-0.0235596	496.0
1422	5.02718e+02	1.42200e+03	-0.0234472	501.0
1432	5.07602e+02	1.43200e+03	-0.0235709	506.0
1442	5.12478e+02	1.44200e+03	-0.0236778	511.0
1452	5.17440e+02	1.45200e+03	-0.023707	516.0
1462	5.22327e+02	1.46200e+03	-0.023745	521.0
1472	5.27201e+02	1.47200e+03	-0.0235677	526.0
1482	5.32046e+02	1.48200e+03	-0.023639	531.0
1492	5.37018e+02	1.49200e+03	-0.0238465	536.0
1502	5.42040e+02	1.50200e+03	-0.0238239	541.0
1512	5.46873e+02	1.51200e+03	-0.0238618	546.0
1522	5.51747e+02	1.52200e+03	-0.0239566	551.0
1532	5.56675e+02	1.53200e+03	-0.0240602	556.0
1542	5.61556e+02	1.54200e+03	-0.0241736	561.0
1552	5.66395e+02	1.55200e+03	-0.0242139	566.0
1562	5.71251e+02	1.56200e+03	-0.0241595	571.0
1572	5.76092e+02	1.57200e+03	-0.0241637	576.0
1582	5.81160e+02	1.58200e+03	-0.0241912	581.0
1592	5.85933e+02	1.59200e+03	-0.0241092	586.0
1602	5.90834e+02	1.60200e+03	-0.0242236	591.0
1612	5.95761e+02	1.61200e+03	-0.0242269	596.0
1622	6.00657e+02	1.62200e+03	-0.024231	601.0
1632	6.05568e+02	1.63200e+03	-0.0242306	606.0
1642	6.10482e+02	1.64200e+03	-0.0241932	611.0
1652	6.15453e+02	1.65200e+03	-0.0243308	616.0
1662	6.20459e+02	1.66200e+03	-0.0243135	621.0
1672	6.25438e+02	1.67200e+03	-0.0242227	626.0
1682	6.30427e+02	1.68200e+03	-0.0241365	631.0
1692	6.35352e+02	1.69200e+03	-0.0240344	636.0
1702	6.40361e+02	1.70200e+03	-0.0241748	641.0
1712	6.45331e+02	1.71200e+03	-0.0243191	646.0
1722	6.50404e+02	1.72200e+03	-0.0243387	651.0
1732	6.55426e+02	1.73200e+03	-0.0243307	656.0
1742	6.60402e+02	1.74200e+03	-0.0243819	661.0
1752	6.65359e+02	1.75200e+03	-0.0244338	666.0
1762	6.70325e+02	1.76200e+03	-0.0244169	671.0
1772	6.75290e+02	1.77200e+03	-0.0243209	676.0
1782	6.80411e+02	1.78200e+03	-0.0238784	681.0
1792	6.85613e+02	1.79200e+03	-0.0241608	686.0
1802	6.89262e+02	1.80200e+03	-0.0242269	691.0
1812	6.92281e+02	1.81200e+03	-0.0243815	696.0
1822	6.94416e+02	1.82200e+03	-0.0242346	700.0
1832	6.96020e+02	1.83200e+03	-0.0243807	700.0
1842	6.97216e+02	1.84200e+03	-0.0242349	700.0
1852	6.98122e+02	1.85200e+03	-0.0243148	700.0
1862	6.98847e+02	1.86200e+03	-0.0243696	700.0
1872	6.99411e+02	1.87200e+03	-0.0243101	700.0
1882	6.99857e+02	1.88200e+03	-0.0243356	700.0
1892	7.00235e+02	1.89200e+03	-0.0243643	700.0
1902	7.00449e+02	1.90200e+03	-0.0242681	700.0
1912	7.00669e+02	1.91200e+03	-0.0242434	700.0
1922	7.00856e+02	1.92200e+03	-0.0242768	700.0
1932	7.00982e+02	1.93200e+03	-0.0243012	700.0
1942	7.01112e+02	1.94200e+03	-0.0244206	700.0
1952	7.01204e+02	1.95200e+03	-0.0243078	700.0
1962	7.01271e+02	1.96200e+03	-0.0240691	700.0
1972	7.01334e+02	1.97200e+03	-0.0239584	700.0
1982	7.01379e+02	1.98200e+03	-0.0238023	700.0
1992	7.01416e+02	1.99200e+03	-0.0240683	700.0
2002	7.01458e+02	2.00200e+03	-0.0242156	700.0
2012	7.01480e+02	2.01200e+03	-0.024167	700.0
2022	7.01490e+02	2.02200e+03	-0.0242413	700.0
2032	7.01513e+02	2.03200e+03	-0.0242504	700.0
2042	7.01524e+02	2.04200e+03	-0.0240908	700.0
2052	7.01530e+02	2.05200e+03	-0.0240467	700.0
2062	7.01548e+02	2.06200e+03	-0.0241097	700.0
2072	7.01525e+02	2.07200e+03	-0.0240053	700.0
2082	7.01521e+02	2.08200e+03	-0.0241344	700.0
2092	7.01503e+02	2.09200e+03	-0.0240792	700.0
2102	7.01501e+02	2.10200e+03	-0.0240254	700.0
2112	7.01494e+02	2.11200e+03	-0.0241679	700.0
2122	7.01492e+02	2.12200e+03	-0.0240669	700.0
2132	7.01501e+02	2.13200e+03	-0.0239948	700.0
2142	7.01487e+02	2.14200e+03	-0.0242077	700.0
2152	7.01490e+02	2.15200e+03	-0.024285	700.0
2162	7.01467e+02	2.16200e+03	-0.0242383	700.0
2172	7.01463e+02	2.17200e+03	-0.0243381	700.0
2182	7.01451e+02	2.18200e+03	-0.0242586	700.0
2192	7.01449e+02	2.19200e+03	-0.0243001	700.0
2202	7.01419e+02	2.20200e+03	-0.0242014	700.0
2212	7.01406e+02	2.21200e+03	-0.0242047	700.0
2222	7.01394e+02	2.22200e+03	-0.023975	700.0
2232	7.01379e+02	2.23200e+03	-0.0242986	700.0
2242	7.01379e+02	2.24200e+03	-0.0244372	700.0
2252	7.01373e+02	2.25200e+03	-0.0244448	700.0
2262	7.01368e+02	2.26200e+03	-0.024398	700.0
2272	7.01349e+02	2.27200e+03	-0.0245472	700.0
2282	7.01337e+02	2.28200e+03	-0.0243966	700.0
2292	7.01323e+02	2.29200e+03	-0.0243804	700.0
2302	7.01305e+02	2.30200e+03	-0.024643	700.0
2312	7.01297e+02	2.31200e+03	-0.0245998	700.0
2322	7.01286e+02	2.32200e+03	-0.0244454	700.0
2332	7.01273e+02	2.33200e+03	-0.0243159	700.0
2342	7.01268e+02	2.34200e+03	-0.0244279	700.0
2352	7.01251e+02	2.35200e+03	-0.0245285	700.0
2362	7.01242e+02	2.36200e+03	-0.0244962	700.0
2372	7.01232e+02	2.37200e+03	-0.0246131	700.0
2382	7.01226e+02	2.38200e+03	-0.0245822	700.0
2392	7.01225e+02	2.39200e+03	-0.0244841	700.0
2402	7.01212e+02	2.40200e+03	-0.024552	700.0
2412	7.01200e+02	2.41200e+03	-0.0245765	700.0
2422	7.01187e+02	2.42200e+03	-0.0245414	700.0
2432	7.01182e+02	2.43200e+03	-0.0245658	700.0
2442	7.01171e+02	2.44200e+03	-0.0246296	700.0
2452	7.01165e+02	2.45200e+03	-0.0246353	700.0
2462	7.01155e+02	2.46200e+03	-0.0245552	700.0
2472	7.01151e+02	2.47200e+03	-0.0245825	700.0
2482	7.01143e+02	2.48200e+03	-0.0246007	700.0
2492	7.01129e+02	2.49200e+03	-0.0245879	700.0
2502	7.01137e+02	2.50200e+03	-0.0246315	700.0
2512	7.01121e+02	2.51200e+03	-0.0246275	700.0
2522	7.01121e+02	2.52200e+03	-0.0246586	700.0
2532	7.01129e+02	2.53200e+03	-0.0246998	700.0
2542	7.01120e+02	2.54200e+03	-0.024723	700.0
2552	7.01115e+02	2.55200e+03	-0.0247575	700.0
2562	7.01132e+02	2.56200e+03	-0.0246489	700.0
2572	7.01128e+02	2.57200e+03	-0.0247272	700.0
2582	7.01116e+02	2.58200e+03	-0.0248702	700.0
2592	7.01115e+02	2.59200e+03	-0.0246534	700.0
2602	7.01112e+02	2.60200e+03	-0.024646	700.0
2612	7.01110e+02	2.61200e+03	-0.0247307	700.0
2622	7.01108e+02	2.62200e+03	-0.0246952	700.0
2632	7.01106e+02	2.63200e+03	-0.0248211	700.0
2642	7.01109e+02	2.64200e+03	-0.0247173	700.0
2652	7.01096e+02	2.65200e+03	-0.0245685	700.0
2662	7.01091e+02	2.66200e+03	-0.0245838	700.0
2672	7.01073e+02	2.67200e+03	-0.0245609	700.0
2682	7.01069e+02	2.68200e+03	-0.0246675	700.0
2692	7.01063e+02	2.69200e+03	-0.0246618	700.0
2702	7.01056e+02	2.70200e+03	-0.024602	700.0
2712	7.01046e+02	2.71200e+03	-0.0245701	700.0
2720	7.01044e+02	2.72000e+03	-0.0246661	700.0