Folder: Pyrolysis_BESKID/Experiments/TGA/TUBS/tga_nonisotherm (part 2)

File: tga_dynamic_n2_dyn5_powder_2mg_r2.txt
index	ts	t	weight	tr
[#]	[°C]	[s]	[mg]	[°C]
1083	1.31380e+02	1.08300e+03	1.95461e+00	1.30250e+02
1120	1.34479e+02	1.12000e+03	1.95388e+00	1.33333e+02
1157	1.37606e+02	1.15700e+03	1.95312e+00	1.36417e+02
1194	1.40703e+02	1.19400e+03	1.95231e+00	1.39500e+02
1231	1.43812e+02	1.23100e+03	1.95105e+00	1.42583e+02
1268	1.46933e+02	1.26800e+03	1.94982e+00	1.45667e+02
1305	1.50052e+02	1.30500e+03	1.94853e+00	1.48750e+02
1342	1.53152e+02	1.34200e+03	1.94669e+00	1.51833e+02
1379	1.56266e+02	1.37900e+03	1.94477e+00	1.54917e+02
1416	1.59392e+02	1.41600e+03	1.94219e+00	1.58000e+02
1453	1.62493e+02	1.45300e+03	1.93839e+00	1.61083e+02
1490	1.65613e+02	1.49000e+03	1.93311e+00	1.64167e+02
1527	1.68721e+02	1.52700e+03	1.92659e+00	1.67250e+02
1564	1.71836e+02	1.56400e+03	1.91845e+00	1.70333e+02
1601	1.74938e+02	1.60100e+03	1.90944e+00	1.73417e+02
1638	1.78045e+02	1.63800e+03	1.90042e+00	1.76500e+02
1675	1.81152e+02	1.67500e+03	1.89207e+00	1.79583e+02
1712	1.84273e+02	1.71200e+03	1.88535e+00	1.82667e+02
1749	1.87400e+02	1.74900e+03	1.88026e+00	1.85750e+02
1786	1.90501e+02	1.78600e+03	1.87681e+00	1.88833e+02
1823	1.93618e+02	1.82300e+03	1.87454e+00	1.91917e+02
1860	1.96734e+02	1.86000e+03	1.87276e+00	1.95000e+02
1897	1.99846e+02	1.89700e+03	1.87106e+00	1.98083e+02
1934	2.02941e+02	1.93400e+03	1.86990e+00	2.01167e+02
1971	2.06010e+02	1.97100e+03	1.86860e+00	2.04250e+02
2008	2.09104e+02	2.00800e+03	1.86732e+00	2.07333e+02
2045	2.12157e+02	2.04500e+03	1.86627e+00	2.10417e+02
2082	2.15246e+02	2.08200e+03	1.86564e+00	2.13500e+02
2119	2.18313e+02	2.11900e+03	1.86490e+00	2.16583e+02
2156	2.21392e+02	2.15600e+03	1.86409e+00	2.19667e+02
2193	2.24468e+02	2.19300e+03	1.86377e+00	2.22750e+02
2230	2.27553e+02	2.23000e+03	1.86329e+00	2.25833e+02
2267	2.30635e+02	2.26700e+03	1.86266e+00	2.28917e+02
2304	2.33740e+02	2.30400e+03	1.86200e+00	2.32000e+02
2341	2.36833e+02	2.34100e+03	1.86158e+00	2.35083e+02
2378	2.39911e+02	2.37800e+03	1.86114e+00	2.38167e+02
2415	2.42996e+02	2.41500e+03	1.86047e+00	2.41250e+02
2452	2.46091e+02	2.45200e+03	1.85990e+00	2.44333e+02
2489	2.49186e+02	2.48900e+03	1.85902e+00	2.47417e+02
2526	2.52293e+02	2.52600e+03	1.85820e+00	2.50500e+02
2563	2.55376e+02	2.56300e+03	1.85710e+00	2.53583e+02
2600	2.58448e+02	2.60000e+03	1.85548e+00	2.56667e+02
2637	2.61493e+02	2.63700e+03	1.85405e+00	2.59750e+02
2674	2.64550e+02	2.67400e+03	1.85211e+00	2.62833e+02
2711	2.67629e+02	2.71100e+03	1.84963e+00	2.65917e+02
2748	2.70697e+02	2.74800e+03	1.84654e+00	2.69000e+02
2785	2.73816e+02	2.78500e+03	1.84278e+00	2.72083e+02
2822	2.76917e+02	2.82200e+03	1.83827e+00	2.75167e+02
2859	2.80082e+02	2.85900e+03	1.83250e+00	2.78250e+02
2896	2.83211e+02	2.89600e+03	1.82595e+00	2.81333e+02
2933	2.86423e+02	2.93300e+03	1.81838e+00	2.84417e+02
2970	2.89635e+02	2.97000e+03	1.80982e+00	2.87500e+02
3007	2.92768e+02	3.00700e+03	1.80045e+00	2.90583e+02
3044	2.95875e+02	3.04400e+03	1.79073e+00	2.93667e+02
3081	2.98983e+02	3.08100e+03	1.78085e+00	2.96750e+02
3118	3.02061e+02	3.11800e+03	1.77069e+00	2.99833e+02
3155	3.05176e+02	3.15500e+03	1.76048e+00	3.02917e+02
3192	3.08252e+02	3.19200e+03	1.74922e+00	3.06000e+02
3229	3.11327e+02	3.22900e+03	1.73680e+00	3.09083e+02
3266	3.14527e+02	3.26600e+03	1.72252e+00	3.12167e+02
3303	3.17719e+02	3.30300e+03	1.70530e+00	3.15250e+02
3340	3.20907e+02	3.34000e+03	1.68433e+00	3.18333e+02
3377	3.24043e+02	3.37700e+03	1.65845e+00	3.21417e+02
3414	3.27157e+02	3.41400e+03	1.62662e+00	3.24500e+02
3451	3.30318e+02	3.45100e+03	1.58751e+00	3.27583e+02
3488	3.33423e+02	3.48800e+03	1.54015e+00	3.30667e+02
3525	3.36561e+02	3.52500e+03	1.48350e+00	3.33750e+02
3562	3.39630e+02	3.56200e+03	1.41754e+00	3.36833e+02
3599	3.42768e+02	3.59900e+03	1.34235e+00	3.39917e+02
3636	3.46029e+02	3.63600e+03	1.25830e+00	3.43000e+02
3673	3.48929e+02	3.67300e+03	1.16662e+00	3.46083e+02
3710	3.51910e+02	3.71000e+03	1.06839e+00	3.49167e+02
3747	3.54921e+02	3.74700e+03	9.66407e-01	3.52250e+02
3784	3.57994e+02	3.78400e+03	8.62871e-01	3.55333e+02
3821	3.61073e+02	3.82100e+03	7.58638e-01	3.58417e+02
3858	3.64180e+02	3.85800e+03	6.54670e-01	3.61500e+02
3895	3.67254e+02	3.89500e+03	5.55204e-01	3.64583e+02
3932	3.70345e+02	3.93200e+03	4.63836e-01	3.67667e+02
3969	3.73435e+02	3.96900e+03	3.82442e-01	3.70750e+02
4006	3.76594e+02	4.00600e+03	3.11531e-01	3.73833e+02
4043	3.79849e+02	4.04300e+03	2.51601e-01	3.76917e+02
4080	3.82947e+02	4.08000e+03	2.01900e-01	3.80000e+02
4117	3.86026e+02	4.11700e+03	1.61560e-01	3.83083e+02
4154	3.89178e+02	4.15400e+03	1.29676e-01	3.86167e+02
4191	3.92206e+02	4.19100e+03	1.05475e-01	3.89250e+02
4228	3.95181e+02	4.22800e+03	8.73429e-02	3.92333e+02
4265	3.98516e+02	4.26500e+03	7.48344e-02	3.95417e+02
4302	4.01032e+02	4.30200e+03	6.59178e-02	3.98500e+02
4339	4.03985e+02	4.33900e+03	5.95655e-02	4.01583e+02
4376	4.06949e+02	4.37600e+03	5.53311e-02	4.04667e+02
4413	4.09971e+02	4.41300e+03	5.22783e-02	4.07750e+02
4450	4.13024e+02	4.45000e+03	5.02302e-02	4.10833e+02
4487	4.16101e+02	4.48700e+03	4.87318e-02	4.13917e+02
4524	4.19199e+02	4.52400e+03	4.83333e-02	4.17000e+02
4561	4.22289e+02	4.56100e+03	4.75914e-02	4.20083e+02
4598	4.25385e+02	4.59800e+03	4.73399e-02	4.23167e+02
4635	4.28516e+02	4.63500e+03	4.70047e-02	4.26250e+02
4672	4.31241e+02	4.67200e+03	4.73558e-02	4.29333e+02
4709	4.34236e+02	4.70900e+03	4.69135e-02	4.32417e+02
4746	4.37254e+02	4.74600e+03	4.67109e-02	4.35500e+02
4783	4.40266e+02	4.78300e+03	4.66183e-02	4.38583e+02
4820	4.43287e+02	4.82000e+03	4.58443e-02	4.41667e+02
4857	4.46286e+02	4.85700e+03	4.66029e-02	4.44750e+02
4894	4.49286e+02	4.89400e+03	4.64353e-02	4.47833e+02
4931	4.52289e+02	4.93100e+03	4.61440e-02	4.50917e+02
4968	4.55293e+02	4.96800e+03	4.61867e-02	4.54000e+02
5005	4.58327e+02	5.00500e+03	4.60372e-02	4.57083e+02
5042	4.61364e+02	5.04200e+03	4.61327e-02	4.60167e+02
5079	4.64424e+02	5.07900e+03	4.60579e-02	4.63250e+02
5116	4.67428e+02	5.11600e+03	4.61448e-02	4.66333e+02
5153	4.70469e+02	5.15300e+03	4.60542e-02	4.69417e+02
5190	4.73487e+02	5.19000e+03	4.59946e-02	4.72500e+02
5227	4.76520e+02	5.22700e+03	4.59743e-02	4.75583e+02
5264	4.79555e+02	5.26400e+03	4.59689e-02	4.78667e+02
5301	4.82605e+02	5.30100e+03	4.58867e-02	4.81750e+02
5338	4.85659e+02	5.33800e+03	4.60362e-02	4.84833e+02
5375	4.88706e+02	5.37500e+03	4.58683e-02	4.87917e+02
5412	4.91773e+02	5.41200e+03	4.58144e-02	4.91000e+02
5449	4.94823e+02	5.44900e+03	4.55993e-02	4.94083e+02
5486	4.97879e+02	5.48600e+03	4.56556e-02	4.97167e+02
5523	5.00935e+02	5.52300e+03	4.55916e-02	5.00250e+02
5560	5.03997e+02	5.56000e+03	4.57123e-02	5.03333e+02
5597	5.07025e+02	5.59700e+03	4.55838e-02	5.06417e+02
5634	5.10043e+02	5.63400e+03	4.58057e-02	5.09500e+02
5671	5.13090e+02	5.67100e+03	4.58011e-02	5.12583e+02
5708	5.16146e+02	5.70800e+03	4.58625e-02	5.15667e+02
5745	5.19192e+02	5.74500e+03	4.55507e-02	5.18750e+02
5782	5.22259e+02	5.78200e+03	4.55094e-02	5.21833e+02
5819	5.25301e+02	5.81900e+03	4.54600e-02	5.24917e+02
5856	5.28362e+02	5.85600e+03	4.54720e-02	5.28000e+02
5893	5.31403e+02	5.89300e+03	4.57662e-02	5.31083e+02
5930	5.34440e+02	5.93000e+03	4.57174e-02	5.34167e+02
5967	5.37514e+02	5.96700e+03	4.56441e-02	5.37250e+02
6004	5.40581e+02	6.00400e+03	4.56452e-02	5.40333e+02
6041	5.43663e+02	6.04100e+03	4.55607e-02	5.43417e+02
6078	5.46738e+02	6.07800e+03	4.57061e-02	5.46500e+02
6115	5.49823e+02	6.11500e+03	4.56068e-02	5.49583e+02
6152	5.52910e+02	6.15200e+03	4.54822e-02	5.52667e+02
6189	5.55992e+02	6.18900e+03	4.56039e-02	5.55750e+02
6226	5.59042e+02	6.22600e+03	4.55506e-02	5.58833e+02
6263	5.62100e+02	6.26300e+03	4.56612e-02	5.61917e+02
6300	5.65193e+02	6.30000e+03	4.56444e-02	5.65000e+02
6337	5.68303e+02	6.33700e+03	4.55251e-02	5.68083e+02
6374	5.71426e+02	6.37400e+03	4.54536e-02	5.71167e+02
6411	5.74579e+02	6.41100e+03	4.54545e-02	5.74250e+02
6448	5.77723e+02	6.44800e+03	4.54841e-02	5.77333e+02
6485	5.80880e+02	6.48500e+03	4.55069e-02	5.80417e+02
6522	5.84023e+02	6.52200e+03	4.54366e-02	5.83500e+02
6559	5.87136e+02	6.55900e+03	4.55600e-02	5.86583e+02
6596	5.90254e+02	6.59600e+03	4.54118e-02	5.89667e+02
6633	5.93382e+02	6.63300e+03	4.54573e-02	5.92750e+02
6670	5.96496e+02	6.67000e+03	4.52502e-02	5.95833e+02
6707	5.99599e+02	6.70700e+03	4.52715e-02	5.98917e+02
6744	6.02708e+02	6.74400e+03	4.52497e-02	6.02000e+02
6781	6.05739e+02	6.78100e+03	4.50966e-02	6.05083e+02
6818	6.08791e+02	6.81800e+03	4.50313e-02	6.08167e+02
6855	6.11884e+02	6.85500e+03	4.51302e-02	6.11250e+02
6892	6.14951e+02	6.89200e+03	4.50422e-02	6.14333e+02
6929	6.18003e+02	6.92900e+03	4.49187e-02	6.17417e+02
6966	6.21049e+02	6.96600e+03	4.49027e-02	6.20500e+02
7003	6.24122e+02	7.00300e+03	4.48169e-02	6.23583e+02
7040	6.27183e+02	7.04000e+03	4.47865e-02	6.26667e+02
7077	6.30238e+02	7.07700e+03	4.48020e-02	6.29750e+02
7114	6.33268e+02	7.11400e+03	4.47191e-02	6.32833e+02
7151	6.36335e+02	7.15100e+03	4.49652e-02	6.35917e+02
7188	6.39407e+02	7.18800e+03	4.49181e-02	6.39000e+02
7225	6.42464e+02	7.22500e+03	4.47794e-02	6.42083e+02
7262	6.45546e+02	7.26200e+03	4.46625e-02	6.45167e+02
7299	6.48632e+02	7.29900e+03	4.46510e-02	6.48250e+02
7336	6.51711e+02	7.33600e+03	4.45718e-02	6.51333e+02
7373	6.54781e+02	7.37300e+03	4.44949e-02	6.54417e+02
7410	6.57868e+02	7.41000e+03	4.46671e-02	6.57500e+02
7447	6.60954e+02	7.44700e+03	4.44491e-02	6.60583e+02
7484	6.64026e+02	7.48400e+03	4.44230e-02	6.63667e+02
7521	6.67122e+02	7.52100e+03	4.47514e-02	6.66750e+02
7558	6.70205e+02	7.55800e+03	4.45770e-02	6.69833e+02
7595	6.73284e+02	7.59500e+03	4.45376e-02	6.72917e+02
7632	6.76362e+02	7.63200e+03	4.44557e-02	6.76000e+02
7669	6.79441e+02	7.66900e+03	4.44313e-02	6.79083e+02
7706	6.82528e+02	7.70600e+03	4.44891e-02	6.82167e+02
7743	6.85636e+02	7.74300e+03	4.44323e-02	6.85250e+02
7780	6.88758e+02	7.78000e+03	4.43357e-02	6.88333e+02
7817	6.91848e+02	7.81700e+03	4.43411e-02	6.91417e+02
7854	6.94946e+02	7.85400e+03	4.43341e-02	6.94500e+02
7891	6.98048e+02	7.89100e+03	4.42007e-02	6.97583e+02
7920	6.99561e+02	7.92000e+03	4.40703e-02	7.00000e+02

File: tga_dynamic_n2_dyn5_powder_3mg_r1.txt
index	ts	t	weight	tr
[#]	[°C]	[s]	[mg]	[°C]
1083	1.31115e+02	1.08300e+03	2.97223e+00	1.30250e+02
1120	1.34231e+02	1.12000e+03	2.97153e+00	1.33333e+02
1157	1.37363e+02	1.15700e+03	2.97023e+00	1.36417e+02
1194	1.40483e+02	1.19400e+03	2.96892e+00	1.39500e+02
1231	1.43581e+02	1.23100e+03	2.96737e+00	1.42583e+02
1268	1.46702e+02	1.26800e+03	2.96558e+00	1.45667e+02
1305	1.49814e+02	1.30500e+03	2.96339e+00	1.48750e+02
1342	1.52952e+02	1.34200e+03	2.96118e+00	1.51833e+02
1379	1.56077e+02	1.37900e+03	2.95861e+00	1.54917e+02
1416	1.59193e+02	1.41600e+03	2.95553e+00	1.58000e+02
1453	1.62301e+02	1.45300e+03	2.95121e+00	1.61083e+02
1490	1.65417e+02	1.49000e+03	2.94514e+00	1.64167e+02
1527	1.68549e+02	1.52700e+03	2.93704e+00	1.67250e+02
1564	1.71659e+02	1.56400e+03	2.92662e+00	1.70333e+02
1601	1.74776e+02	1.60100e+03	2.91432e+00	1.73417e+02
1638	1.77898e+02	1.63800e+03	2.90158e+00	1.76500e+02
1675	1.81008e+02	1.67500e+03	2.88958e+00	1.79583e+02
1712	1.84135e+02	1.71200e+03	2.87935e+00	1.82667e+02
1749	1.87234e+02	1.74900e+03	2.87108e+00	1.85750e+02
1786	1.90339e+02	1.78600e+03	2.86562e+00	1.88833e+02
1823	1.93464e+02	1.82300e+03	2.86196e+00	1.91917e+02
1860	1.96564e+02	1.86000e+03	2.85926e+00	1.95000e+02
1897	1.99669e+02	1.89700e+03	2.85675e+00	1.98083e+02
1934	2.02789e+02	1.93400e+03	2.85504e+00	2.01167e+02
1971	2.05881e+02	1.97100e+03	2.85297e+00	2.04250e+02
2008	2.08993e+02	2.00800e+03	2.85076e+00	2.07333e+02
2045	2.12078e+02	2.04500e+03	2.84920e+00	2.10417e+02
2082	2.15170e+02	2.08200e+03	2.84766e+00	2.13500e+02
2119	2.18254e+02	2.11900e+03	2.84649e+00	2.16583e+02
2156	2.21346e+02	2.15600e+03	2.84523e+00	2.19667e+02
2193	2.24435e+02	2.19300e+03	2.84418e+00	2.22750e+02
2230	2.27528e+02	2.23000e+03	2.84351e+00	2.25833e+02
2267	2.30608e+02	2.26700e+03	2.84255e+00	2.28917e+02
2304	2.33703e+02	2.30400e+03	2.84182e+00	2.32000e+02
2341	2.36796e+02	2.34100e+03	2.84105e+00	2.35083e+02
2378	2.39881e+02	2.37800e+03	2.83997e+00	2.38167e+02
2415	2.42944e+02	2.41500e+03	2.83913e+00	2.41250e+02
2452	2.46012e+02	2.45200e+03	2.83773e+00	2.44333e+02
2489	2.49082e+02	2.48900e+03	2.83648e+00	2.47417e+02
2526	2.52136e+02	2.52600e+03	2.83491e+00	2.50500e+02
2563	2.55211e+02	2.56300e+03	2.83305e+00	2.53583e+02
2600	2.58281e+02	2.60000e+03	2.83116e+00	2.56667e+02
2637	2.61359e+02	2.63700e+03	2.82850e+00	2.59750e+02
2674	2.64434e+02	2.67400e+03	2.82549e+00	2.62833e+02
2711	2.67533e+02	2.71100e+03	2.82181e+00	2.65917e+02
2748	2.70633e+02	2.74800e+03	2.81663e+00	2.69000e+02
2785	2.73704e+02	2.78500e+03	2.81074e+00	2.72083e+02
2822	2.76801e+02	2.82200e+03	2.80369e+00	2.75167e+02
2859	2.79929e+02	2.85900e+03	2.79512e+00	2.78250e+02
2896	2.83059e+02	2.89600e+03	2.78497e+00	2.81333e+02
2933	2.86168e+02	2.93300e+03	2.77306e+00	2.84417e+02
2970	2.89255e+02	2.97000e+03	2.76010e+00	2.87500e+02
3007	2.92350e+02	3.00700e+03	2.74564e+00	2.90583e+02
3044	2.95449e+02	3.04400e+03	2.73043e+00	2.93667e+02
3081	2.98530e+02	3.08100e+03	2.71500e+00	2.96750e+02
3118	3.01623e+02	3.11800e+03	2.69898e+00	2.99833e+02
3155	3.04723e+02	3.15500e+03	2.68255e+00	3.02917e+02
3192	3.07804e+02	3.19200e+03	2.66490e+00	3.06000e+02
3229	3.10880e+02	3.22900e+03	2.64566e+00	3.09083e+02
3266	3.13982e+02	3.26600e+03	2.62373e+00	3.12167e+02
3303	3.17029e+02	3.30300e+03	2.59723e+00	3.15250e+02
3340	3.20096e+02	3.34000e+03	2.56474e+00	3.18333e+02
3377	3.23152e+02	3.37700e+03	2.52501e+00	3.21417e+02
3414	3.26219e+02	3.41400e+03	2.47637e+00	3.24500e+02
3451	3.29283e+02	3.45100e+03	2.41701e+00	3.27583e+02
3488	3.32342e+02	3.48800e+03	2.34518e+00	3.30667e+02
3525	3.35416e+02	3.52500e+03	2.25964e+00	3.33750e+02
3562	3.38180e+02	3.56200e+03	2.16022e+00	3.36833e+02
3599	3.41234e+02	3.59900e+03	2.04656e+00	3.39917e+02
3636	3.44309e+02	3.63600e+03	1.92019e+00	3.43000e+02
3673	3.47375e+02	3.67300e+03	1.78195e+00	3.46083e+02
3710	3.50482e+02	3.71000e+03	1.63307e+00	3.49167e+02
3747	3.53730e+02	3.74700e+03	1.47821e+00	3.52250e+02
3784	3.57020e+02	3.78400e+03	1.31986e+00	3.55333e+02
3821	3.60176e+02	3.82100e+03	1.15914e+00	3.58417e+02
3858	3.63304e+02	3.85800e+03	9.97165e-01	3.61500e+02
3895	3.66438e+02	3.89500e+03	8.41265e-01	3.64583e+02
3932	3.69563e+02	3.93200e+03	6.97305e-01	3.67667e+02
3969	3.72645e+02	3.96900e+03	5.68463e-01	3.70750e+02
4006	3.75706e+02	4.00600e+03	4.55782e-01	3.73833e+02
4043	3.78780e+02	4.04300e+03	3.59681e-01	3.76917e+02
4080	3.81882e+02	4.08000e+03	2.79917e-01	3.80000e+02
4117	3.84989e+02	4.11700e+03	2.15202e-01	3.83083e+02
4154	3.88110e+02	4.15400e+03	1.63720e-01	3.86167e+02
4191	3.91229e+02	4.19100e+03	1.24490e-01	3.89250e+02
4228	3.94359e+02	4.22800e+03	9.51367e-02	3.92333e+02
4265	3.97492e+02	4.26500e+03	7.45632e-02	3.95417e+02
4302	4.00644e+02	4.30200e+03	5.97951e-02	3.98500e+02
4339	4.03745e+02	4.33900e+03	4.94119e-02	4.01583e+02
4376	4.06835e+02	4.37600e+03	4.23993e-02	4.04667e+02
4413	4.09990e+02	4.41300e+03	3.76571e-02	4.07750e+02
4450	4.13090e+02	4.45000e+03	3.41866e-02	4.10833e+02
4487	4.16076e+02	4.48700e+03	3.18805e-02	4.13917e+02
4524	4.19113e+02	4.52400e+03	3.05066e-02	4.17000e+02
4561	4.21966e+02	4.56100e+03	2.94877e-02	4.20083e+02
4598	4.24956e+02	4.59800e+03	2.85453e-02	4.23167e+02
4635	4.27990e+02	4.63500e+03	2.82780e-02	4.26250e+02
4672	4.31026e+02	4.67200e+03	2.84085e-02	4.29333e+02
4709	4.34095e+02	4.70900e+03	2.79272e-02	4.32417e+02
4746	4.37165e+02	4.74600e+03	2.78076e-02	4.35500e+02
4783	4.40212e+02	4.78300e+03	2.78105e-02	4.38583e+02
4820	4.43283e+02	4.82000e+03	2.67951e-02	4.41667e+02
4857	4.46337e+02	4.85700e+03	2.75193e-02	4.44750e+02
4894	4.49404e+02	4.89400e+03	2.72252e-02	4.47833e+02
4931	4.52462e+02	4.93100e+03	2.71011e-02	4.50917e+02
4968	4.55527e+02	4.96800e+03	2.70975e-02	4.54000e+02
5005	4.58579e+02	5.00500e+03	2.67157e-02	4.57083e+02
5042	4.61645e+02	5.04200e+03	2.67335e-02	4.60167e+02
5079	4.64697e+02	5.07900e+03	2.67260e-02	4.63250e+02
5116	4.67760e+02	5.11600e+03	2.68818e-02	4.66333e+02
5153	4.70838e+02	5.15300e+03	2.68140e-02	4.69417e+02
5190	4.73909e+02	5.19000e+03	2.64923e-02	4.72500e+02
5227	4.76958e+02	5.22700e+03	2.65288e-02	4.75583e+02
5264	4.80020e+02	5.26400e+03	2.63112e-02	4.78667e+02
5301	4.83116e+02	5.30100e+03	2.62839e-02	4.81750e+02
5338	4.86199e+02	5.33800e+03	2.63175e-02	4.84833e+02
5375	4.89236e+02	5.37500e+03	2.62690e-02	4.87917e+02
5412	4.92289e+02	5.41200e+03	2.61735e-02	4.91000e+02
5449	4.95339e+02	5.44900e+03	2.61579e-02	4.94083e+02
5486	4.98383e+02	5.48600e+03	2.60372e-02	4.97167e+02
5523	5.01391e+02	5.52300e+03	2.59837e-02	5.00250e+02
5560	5.04457e+02	5.56000e+03	2.61600e-02	5.03333e+02
5597	5.07500e+02	5.59700e+03	2.60115e-02	5.06417e+02
5634	5.10535e+02	5.63400e+03	2.60759e-02	5.09500e+02
5671	5.13594e+02	5.67100e+03	2.59311e-02	5.12583e+02
5708	5.16653e+02	5.70800e+03	2.60567e-02	5.15667e+02
5745	5.19730e+02	5.74500e+03	2.60887e-02	5.18750e+02
5782	5.22795e+02	5.78200e+03	2.58633e-02	5.21833e+02
5819	5.25801e+02	5.81900e+03	2.59239e-02	5.24917e+02
5856	5.28818e+02	5.85600e+03	2.58153e-02	5.28000e+02
5893	5.31875e+02	5.89300e+03	2.60809e-02	5.31083e+02
5930	5.34888e+02	5.93000e+03	2.59967e-02	5.34167e+02
5967	5.37954e+02	5.96700e+03	2.59656e-02	5.37250e+02
6004	5.40989e+02	6.00400e+03	2.59034e-02	5.40333e+02
6041	5.44049e+02	6.04100e+03	2.57807e-02	5.43417e+02
6078	5.47132e+02	6.07800e+03	2.59090e-02	5.46500e+02
6115	5.50247e+02	6.11500e+03	2.58167e-02	5.49583e+02
6152	5.53340e+02	6.15200e+03	2.56954e-02	5.52667e+02
6189	5.56399e+02	6.18900e+03	2.58455e-02	5.55750e+02
6226	5.59419e+02	6.22600e+03	2.58330e-02	5.58833e+02
6263	5.62485e+02	6.26300e+03	2.56239e-02	5.61917e+02
6300	5.65548e+02	6.30000e+03	2.55045e-02	5.65000e+02
6337	5.68550e+02	6.33700e+03	2.54980e-02	5.68083e+02
6374	5.71601e+02	6.37400e+03	2.54276e-02	5.71167e+02
6411	5.75060e+02	6.41100e+03	2.55252e-02	5.74250e+02
6448	5.78265e+02	6.44800e+03	2.54852e-02	5.77333e+02
6485	5.81160e+02	6.48500e+03	2.54155e-02	5.80417e+02
6522	5.84114e+02	6.52200e+03	2.54718e-02	5.83500e+02
6559	5.87269e+02	6.55900e+03	2.55804e-02	5.86583e+02
6596	5.90464e+02	6.59600e+03	2.53987e-02	5.89667e+02
6633	5.93394e+02	6.63300e+03	2.53682e-02	5.92750e+02
6670	5.96391e+02	6.67000e+03	2.54389e-02	5.95833e+02
6707	5.99409e+02	6.70700e+03	2.54275e-02	5.98917e+02
6744	6.02438e+02	6.74400e+03	2.53424e-02	6.02000e+02
6781	6.05455e+02	6.78100e+03	2.51504e-02	6.05083e+02
6818	6.08495e+02	6.81800e+03	2.50939e-02	6.08167e+02
6855	6.11538e+02	6.85500e+03	2.51265e-02	6.11250e+02
6892	6.14590e+02	6.89200e+03	2.50972e-02	6.14333e+02
6929	6.17633e+02	6.92900e+03	2.50438e-02	6.17417e+02
6966	6.20682e+02	6.96600e+03	2.50106e-02	6.20500e+02
7003	6.23754e+02	7.00300e+03	2.50060e-02	6.23583e+02
7040	6.26813e+02	7.04000e+03	2.49903e-02	6.26667e+02
7077	6.29863e+02	7.07700e+03	2.50011e-02	6.29750e+02
7114	6.32909e+02	7.11400e+03	2.49306e-02	6.32833e+02
7151	6.35966e+02	7.15100e+03	2.49981e-02	6.35917e+02
7188	6.39011e+02	7.18800e+03	2.48008e-02	6.39000e+02
7225	6.42081e+02	7.22500e+03	2.47620e-02	6.42083e+02
7262	6.45129e+02	7.26200e+03	2.45920e-02	6.45167e+02
7299	6.48182e+02	7.29900e+03	2.46427e-02	6.48250e+02
7336	6.51228e+02	7.33600e+03	2.46286e-02	6.51333e+02
7373	6.54300e+02	7.37300e+03	2.44767e-02	6.54417e+02
7410	6.57355e+02	7.41000e+03	2.44947e-02	6.57500e+02
7447	6.60406e+02	7.44700e+03	2.42228e-02	6.60583e+02
7484	6.63464e+02	7.48400e+03	2.41824e-02	6.63667e+02
7521	6.66522e+02	7.52100e+03	2.43371e-02	6.66750e+02
7558	6.69595e+02	7.55800e+03	2.43796e-02	6.69833e+02
7595	6.72664e+02	7.59500e+03	2.43092e-02	6.72917e+02
7632	6.75741e+02	7.63200e+03	2.42786e-02	6.76000e+02
7669	6.78811e+02	7.66900e+03	2.42351e-02	6.79083e+02
7706	6.81898e+02	7.70600e+03	2.42800e-02	6.82167e+02
7743	6.84983e+02	7.74300e+03	2.41646e-02	6.85250e+02
7780	6.88060e+02	7.78000e+03	2.41874e-02	6.88333e+02
7817	6.91136e+02	7.81700e+03	2.41138e-02	6.91417e+02
7854	6.94221e+02	7.85400e+03	2.40591e-02	6.94500e+02
7891	6.97310e+02	7.89100e+03	2.40067e-02	6.97583e+02
7920	6.98818e+02	7.92000e+03	2.40040e-02	7.00000e+02