Folder: Pyrolysis_BESKID/Experiments/TGA/TUBS/tga_nonisotherm (part 19)

File: tga_dynamic_n2low30_dyn30_piece_3mg_r3.txt
Index	Ts	t	Weight	Tr
[#]	[°C]	[s]	[mg]	[°C]
680	1.30012e+02	6.80000e+02	2.97487	130.0
690	1.35103e+02	6.90000e+02	2.97422	135.0
700	1.40157e+02	7.00000e+02	2.97408	140.0
710	1.45197e+02	7.10000e+02	2.97397	145.0
720	1.50247e+02	7.20000e+02	2.97363	150.0
730	1.55308e+02	7.30000e+02	2.97307	155.0
740	1.60355e+02	7.40000e+02	2.97277	160.0
750	1.65404e+02	7.50000e+02	2.97236	165.0
760	1.70477e+02	7.60000e+02	2.97188	170.0
770	1.75549e+02	7.70000e+02	2.97138	175.0
780	1.80617e+02	7.80000e+02	2.97075	180.0
790	1.85690e+02	7.90000e+02	2.96992	185.0
800	1.90753e+02	8.00000e+02	2.96858	190.0
810	1.95817e+02	8.10000e+02	2.96677	195.0
820	2.00837e+02	8.20000e+02	2.96442	200.0
830	2.05907e+02	8.30000e+02	2.96144	205.0
840	2.11070e+02	8.40000e+02	2.95791	210.0
850	2.16206e+02	8.50000e+02	2.95404	215.0
860	2.21361e+02	8.60000e+02	2.95022	220.0
870	2.26600e+02	8.70000e+02	2.94636	225.0
880	2.31856e+02	8.80000e+02	2.94229	230.0
890	2.36999e+02	8.90000e+02	2.93798	235.0
900	2.41979e+02	9.00000e+02	2.93346	240.0
910	2.47079e+02	9.10000e+02	2.92862	245.0
920	2.52132e+02	9.20000e+02	2.92385	250.0
930	2.57059e+02	9.30000e+02	2.91884	255.0
940	2.62066e+02	9.40000e+02	2.91348	260.0
950	2.67112e+02	9.50000e+02	2.90806	265.0
960	2.72159e+02	9.60000e+02	2.9026	270.0
970	2.77201e+02	9.70000e+02	2.89706	275.0
980	2.82344e+02	9.80000e+02	2.89098	280.0
990	2.87452e+02	9.90000e+02	2.88259	285.0
1000	2.92498e+02	1.00000e+03	2.87447	290.0
1010	2.97760e+02	1.01000e+03	2.86623	295.0
1020	3.02888e+02	1.02000e+03	2.85746	300.0
1030	3.08012e+02	1.03000e+03	2.84681	305.0
1040	3.13043e+02	1.04000e+03	2.83434	310.0
1050	3.18046e+02	1.05000e+03	2.82033	315.0
1060	3.23155e+02	1.06000e+03	2.80523	320.0
1070	3.28154e+02	1.07000e+03	2.78934	325.0
1080	3.33254e+02	1.08000e+03	2.77152	330.0
1090	3.38334e+02	1.09000e+03	2.75016	335.0
1100	3.43449e+02	1.10000e+03	2.7233	340.0
1110	3.48593e+02	1.11000e+03	2.68685	345.0
1120	3.53561e+02	1.12000e+03	2.63565	350.0
1130	3.58570e+02	1.13000e+03	2.56253	355.0
1140	3.63504e+02	1.14000e+03	2.4601	360.0
1150	3.68465e+02	1.15000e+03	2.31854	365.0
1160	3.73388e+02	1.16000e+03	2.13888	370.0
1170	3.78282e+02	1.17000e+03	1.92371	375.0
1180	3.83199e+02	1.18000e+03	1.68191	380.0
1190	3.88131e+02	1.19000e+03	1.42389	385.0
1200	3.93150e+02	1.20000e+03	1.16133	390.0
1210	3.98223e+02	1.21000e+03	0.901749	395.0
1220	4.03356e+02	1.22000e+03	0.645583	400.0
1230	4.08472e+02	1.23000e+03	0.413626	405.0
1240	4.13615e+02	1.24000e+03	0.244539	410.0
1250	4.18795e+02	1.25000e+03	0.135219	415.0
1260	4.23899e+02	1.26000e+03	0.0691706	420.0
1270	4.28903e+02	1.27000e+03	0.0318136	425.0
1280	4.33817e+02	1.28000e+03	0.0124741	430.0
1290	4.38633e+02	1.29000e+03	0.00261637	435.0
1300	4.43509e+02	1.30000e+03	-0.00245055	440.0
1310	4.48432e+02	1.31000e+03	-0.00559008	445.0
1320	4.53420e+02	1.32000e+03	-0.00741757	450.0
1330	4.58413e+02	1.33000e+03	-0.0084134	455.0
1340	4.63270e+02	1.34000e+03	-0.00877624	460.0
1350	4.68389e+02	1.35000e+03	-0.00891154	465.0
1360	4.73307e+02	1.36000e+03	-0.00909185	470.0
1370	4.78238e+02	1.37000e+03	-0.00929206	475.0
1380	4.83046e+02	1.38000e+03	-0.00950798	480.0
1390	4.88114e+02	1.39000e+03	-0.00972029	485.0
1400	4.92922e+02	1.40000e+03	-0.00987765	490.0
1410	4.97864e+02	1.41000e+03	-0.00992453	495.0
1420	5.02610e+02	1.42000e+03	-0.00993024	500.0
1430	5.07437e+02	1.43000e+03	-0.0103854	505.0
1440	5.12372e+02	1.44000e+03	-0.0103939	510.0
1450	5.17253e+02	1.45000e+03	-0.0103629	515.0
1460	5.22118e+02	1.46000e+03	-0.0104622	520.0
1470	5.27006e+02	1.47000e+03	-0.0105499	525.0
1480	5.32043e+02	1.48000e+03	-0.010436	530.0
1490	5.36891e+02	1.49000e+03	-0.0105444	535.0
1500	5.41695e+02	1.50000e+03	-0.0108099	540.0
1510	5.46602e+02	1.51000e+03	-0.0104478	545.0
1520	5.51536e+02	1.52000e+03	-0.0104342	550.0
1530	5.56503e+02	1.53000e+03	-0.0106634	555.0
1540	5.61589e+02	1.54000e+03	-0.0106421	560.0
1550	5.66643e+02	1.55000e+03	-0.0105388	565.0
1560	5.71602e+02	1.56000e+03	-0.0107151	570.0
1570	5.76505e+02	1.57000e+03	-0.0107458	575.0
1580	5.81648e+02	1.58000e+03	-0.0107283	580.0
1590	5.86648e+02	1.59000e+03	-0.0108353	585.0
1600	5.91653e+02	1.60000e+03	-0.0110781	590.0
1610	5.96566e+02	1.61000e+03	-0.0112023	595.0
1620	6.01341e+02	1.62000e+03	-0.0109294	600.0
1630	6.06174e+02	1.63000e+03	-0.0110226	605.0
1640	6.11122e+02	1.64000e+03	-0.0111259	610.0
1650	6.15943e+02	1.65000e+03	-0.0112705	615.0
1660	6.20850e+02	1.66000e+03	-0.0111103	620.0
1670	6.25863e+02	1.67000e+03	-0.0112319	625.0
1680	6.31042e+02	1.68000e+03	-0.011173	630.0
1690	6.35873e+02	1.69000e+03	-0.0110088	635.0
1700	6.40860e+02	1.70000e+03	-0.0112225	640.0
1710	6.45866e+02	1.71000e+03	-0.0113635	645.0
1720	6.50853e+02	1.72000e+03	-0.0113201	650.0
1730	6.55913e+02	1.73000e+03	-0.0113963	655.0
1740	6.60886e+02	1.74000e+03	-0.0113138	660.0
1750	6.65871e+02	1.75000e+03	-0.0113144	665.0
1760	6.70883e+02	1.76000e+03	-0.0113703	670.0
1770	6.75889e+02	1.77000e+03	-0.0113624	675.0
1780	6.80873e+02	1.78000e+03	-0.0114598	680.0
1790	6.85825e+02	1.79000e+03	-0.0116005	685.0
1800	6.89614e+02	1.80000e+03	-0.0115288	690.0
1810	6.92794e+02	1.81000e+03	-0.011483	695.0
1820	6.95082e+02	1.82000e+03	-0.0114323	700.0
1830	6.96890e+02	1.83000e+03	-0.0115717	700.0
1840	6.98252e+02	1.84000e+03	-0.0115712	700.0
1850	6.99265e+02	1.85000e+03	-0.0114124	700.0
1860	6.99924e+02	1.86000e+03	-0.0114494	700.0
1870	7.00457e+02	1.87000e+03	-0.0114532	700.0
1880	7.00878e+02	1.88000e+03	-0.0113166	700.0
1890	7.01243e+02	1.89000e+03	-0.0113088	700.0
1900	7.01520e+02	1.90000e+03	-0.0114358	700.0
1910	7.01707e+02	1.91000e+03	-0.0115511	700.0
1920	7.01839e+02	1.92000e+03	-0.0114855	700.0
1930	7.01979e+02	1.93000e+03	-0.0114456	700.0
1940	7.02076e+02	1.94000e+03	-0.0113773	700.0
1950	7.02161e+02	1.95000e+03	-0.011486	700.0
1960	7.02229e+02	1.96000e+03	-0.0114667	700.0
1970	7.02291e+02	1.97000e+03	-0.0115261	700.0
1980	7.02325e+02	1.98000e+03	-0.0115185	700.0
1990	7.02371e+02	1.99000e+03	-0.0114659	700.0
2000	7.02400e+02	2.00000e+03	-0.0116035	700.0
2010	7.02424e+02	2.01000e+03	-0.0115225	700.0
2020	7.02451e+02	2.02000e+03	-0.01163	700.0
2030	7.02470e+02	2.03000e+03	-0.0115433	700.0
2040	7.02478e+02	2.04000e+03	-0.011636	700.0
2050	7.02488e+02	2.05000e+03	-0.0117214	700.0
2060	7.02465e+02	2.06000e+03	-0.0116679	700.0
2070	7.02454e+02	2.07000e+03	-0.0116897	700.0
2080	7.02449e+02	2.08000e+03	-0.0117582	700.0
2090	7.02442e+02	2.09000e+03	-0.0116619	700.0
2100	7.02428e+02	2.10000e+03	-0.0114799	700.0
2110	7.02362e+02	2.11000e+03	-0.0115631	700.0
2120	7.02323e+02	2.12000e+03	-0.0117416	700.0
2130	7.02301e+02	2.13000e+03	-0.0116682	700.0
2140	7.02276e+02	2.14000e+03	-0.0117039	700.0
2150	7.02267e+02	2.15000e+03	-0.0116482	700.0
2160	7.02257e+02	2.16000e+03	-0.0116057	700.0
2170	7.02243e+02	2.17000e+03	-0.0116697	700.0
2180	7.02224e+02	2.18000e+03	-0.0117108	700.0
2190	7.02201e+02	2.19000e+03	-0.0117115	700.0
2200	7.02179e+02	2.20000e+03	-0.0116622	700.0
2210	7.02170e+02	2.21000e+03	-0.0117069	700.0
2220	7.02163e+02	2.22000e+03	-0.0116973	700.0
2230	7.02175e+02	2.23000e+03	-0.0116606	700.0
2240	7.02173e+02	2.24000e+03	-0.0116834	700.0
2250	7.02159e+02	2.25000e+03	-0.0114793	700.0
2260	7.02135e+02	2.26000e+03	-0.0116614	700.0
2270	7.02121e+02	2.27000e+03	-0.0119523	700.0
2280	7.02125e+02	2.28000e+03	-0.011214	700.0
2290	7.02132e+02	2.29000e+03	-0.011416	700.0
2300	7.02127e+02	2.30000e+03	-0.0116682	700.0
2310	7.02139e+02	2.31000e+03	-0.0116857	700.0
2320	7.02123e+02	2.32000e+03	-0.0115979	700.0
2330	7.02114e+02	2.33000e+03	-0.0117445	700.0
2340	7.02126e+02	2.34000e+03	-0.0117666	700.0
2350	7.02112e+02	2.35000e+03	-0.0116874	700.0
2360	7.02116e+02	2.36000e+03	-0.0117024	700.0
2370	7.02114e+02	2.37000e+03	-0.0117248	700.0
2380	7.02110e+02	2.38000e+03	-0.0117608	700.0
2390	7.02108e+02	2.39000e+03	-0.0118205	700.0
2400	7.02114e+02	2.40000e+03	-0.0116695	700.0
2410	7.02108e+02	2.41000e+03	-0.0116027	700.0
2420	7.02104e+02	2.42000e+03	-0.0116678	700.0
2430	7.02093e+02	2.43000e+03	-0.0117926	700.0
2440	7.02096e+02	2.44000e+03	-0.0118096	700.0
2450	7.02092e+02	2.45000e+03	-0.0117988	700.0
2460	7.02087e+02	2.46000e+03	-0.0117906	700.0
2470	7.02080e+02	2.47000e+03	-0.0119385	700.0
2480	7.02074e+02	2.48000e+03	-0.0118856	700.0
2490	7.02085e+02	2.49000e+03	-0.0118304	700.0
2500	7.02071e+02	2.50000e+03	-0.0118255	700.0
2510	7.02077e+02	2.51000e+03	-0.0118632	700.0
2520	7.02081e+02	2.52000e+03	-0.0119063	700.0
2530	7.02076e+02	2.53000e+03	-0.0118911	700.0
2540	7.02076e+02	2.54000e+03	-0.0121048	700.0
2550	7.02086e+02	2.55000e+03	-0.0118034	700.0
2560	7.02092e+02	2.56000e+03	-0.0119076	700.0
2570	7.02080e+02	2.57000e+03	-0.0118463	700.0
2580	7.02083e+02	2.58000e+03	-0.0120415	700.0
2590	7.02085e+02	2.59000e+03	-0.0120608	700.0
2600	7.02080e+02	2.60000e+03	-0.0120067	700.0
2610	7.02075e+02	2.61000e+03	-0.0120804	700.0
2620	7.02068e+02	2.62000e+03	-0.0120858	700.0
2630	7.02069e+02	2.63000e+03	-0.0123016	700.0
2640	7.02073e+02	2.64000e+03	-0.0120681	700.0
2650	7.02068e+02	2.65000e+03	-0.0121622	700.0
2660	7.02069e+02	2.66000e+03	-0.0121074	700.0
2670	7.02068e+02	2.67000e+03	-0.0120713	700.0
2680	7.02067e+02	2.68000e+03	-0.0120359	700.0
2690	7.02072e+02	2.69000e+03	-0.0121258	700.0
2700	7.02055e+02	2.70000e+03	-0.0122974	700.0
2710	7.02059e+02	2.71000e+03	-0.0122018	700.0
2720	7.02062e+02	2.72000e+03	-0.0122517	700.0

File: tga_dynamic_n2low30_dyn30_powder_3mg_r1.txt
Index	Ts	t	Weight	Tr
[#]	[°C]	[s]	[mg]	[°C]
681	1.30378e+02	6.81000e+02	3.04811	130.5
691	1.35432e+02	6.91000e+02	3.04708	135.5
701	1.40473e+02	7.01000e+02	3.0466	140.5
711	1.45535e+02	7.11000e+02	3.04552	145.5
721	1.50607e+02	7.21000e+02	3.04403	150.5
731	1.55649e+02	7.31000e+02	3.04211	155.5
741	1.60731e+02	7.41000e+02	3.04004	160.5
751	1.65808e+02	7.51000e+02	3.03735	165.5
761	1.70882e+02	7.61000e+02	3.03439	170.5
771	1.75961e+02	7.71000e+02	3.03067	175.5
781	1.81060e+02	7.81000e+02	3.02501	180.5
791	1.86150e+02	7.91000e+02	3.01685	185.5
801	1.91255e+02	8.01000e+02	3.00486	190.5
811	1.96363e+02	8.11000e+02	2.9905	195.5
821	2.01488e+02	8.21000e+02	2.97565	200.5
831	2.06606e+02	8.31000e+02	2.96315	205.5
841	2.11745e+02	8.41000e+02	2.95419	210.5
851	2.16863e+02	8.51000e+02	2.94936	215.5
861	2.21918e+02	8.61000e+02	2.94464	220.5
871	2.26988e+02	8.71000e+02	2.94091	225.5
881	2.32071e+02	8.81000e+02	2.93771	230.5
891	2.37092e+02	8.91000e+02	2.93395	235.5
901	2.42206e+02	9.01000e+02	2.93015	240.5
911	2.47306e+02	9.11000e+02	2.92661	245.5
921	2.52456e+02	9.21000e+02	2.9235	250.5
931	2.57654e+02	9.31000e+02	2.92081	255.5
941	2.62816e+02	9.41000e+02	2.91814	260.5
951	2.67976e+02	9.51000e+02	2.91551	265.5
961	2.73096e+02	9.61000e+02	2.91269	270.5
971	2.78283e+02	9.71000e+02	2.90927	275.5
981	2.83441e+02	9.81000e+02	2.90483	280.5
991	2.88606e+02	9.91000e+02	2.89881	285.5
1001	2.93878e+02	1.00100e+03	2.8903	290.5
1011	2.98946e+02	1.01100e+03	2.87866	295.5
1021	3.04011e+02	1.02100e+03	2.86396	300.5
1031	3.09168e+02	1.03100e+03	2.84559	305.5
1041	3.14183e+02	1.04100e+03	2.82415	310.5
1051	3.19177e+02	1.05100e+03	2.80153	315.5
1061	3.24220e+02	1.06100e+03	2.77742	320.5
1071	3.29313e+02	1.07100e+03	2.75219	325.5
1081	3.34479e+02	1.08100e+03	2.72157	330.5
1091	3.39493e+02	1.09100e+03	2.68173	335.5
1101	3.44431e+02	1.10100e+03	2.62856	340.5
1111	3.49333e+02	1.11100e+03	2.55733	345.5
1121	3.54369e+02	1.12100e+03	2.46248	350.5
1131	3.59474e+02	1.13100e+03	2.34119	355.5
1141	3.64437e+02	1.14100e+03	2.19301	360.5
1151	3.69377e+02	1.15100e+03	2.01921	365.5
1161	3.74308e+02	1.16100e+03	1.8216	370.5
1171	3.79306e+02	1.17100e+03	1.60383	375.5
1181	3.84235e+02	1.18100e+03	1.37069	380.5
1191	3.89336e+02	1.19100e+03	1.13112	385.5
1201	3.94301e+02	1.20100e+03	0.896774	390.5
1211	3.99330e+02	1.21100e+03	0.679066	395.5
1221	4.04445e+02	1.22100e+03	0.490863	400.5
1231	4.09467e+02	1.23100e+03	0.338593	405.5
1241	4.14622e+02	1.24100e+03	0.225985	410.5
1251	4.19793e+02	1.25100e+03	0.145725	415.5
1261	4.24936e+02	1.26100e+03	0.0936501	420.5
1271	4.29892e+02	1.27100e+03	0.0617087	425.5
1281	4.34799e+02	1.28100e+03	0.0443194	430.5
1291	4.39731e+02	1.29100e+03	0.0349101	435.5
1301	4.44673e+02	1.30100e+03	0.0302376	440.5
1311	4.49584e+02	1.31100e+03	0.0274059	445.5
1321	4.54574e+02	1.32100e+03	0.025798	450.5
1331	4.59493e+02	1.33100e+03	0.0250232	455.5
1341	4.64762e+02	1.34100e+03	0.0248588	460.5
1351	4.69828e+02	1.35100e+03	0.0244109	465.5
1361	4.74762e+02	1.36100e+03	0.0243826	470.5
1371	4.79277e+02	1.37100e+03	0.024347	475.5
1381	4.83864e+02	1.38100e+03	0.0240628	480.5
1391	4.88537e+02	1.39100e+03	0.0239096	485.5
1401	4.93527e+02	1.40100e+03	0.023863	490.5
1411	4.98405e+02	1.41100e+03	0.0237236	495.5
1421	5.03440e+02	1.42100e+03	0.0235784	500.5
1431	5.08205e+02	1.43100e+03	0.0230959	505.5
1441	5.12991e+02	1.44100e+03	0.0233103	510.5
1451	5.17853e+02	1.45100e+03	0.0231732	515.5
1461	5.22769e+02	1.46100e+03	0.0232102	520.5
1471	5.27709e+02	1.47100e+03	0.0230054	525.5
1481	5.32715e+02	1.48100e+03	0.0232909	530.5
1491	5.37907e+02	1.49100e+03	0.0232023	535.5
1501	5.43063e+02	1.50100e+03	0.0229447	540.5
1511	5.47929e+02	1.51100e+03	0.0231036	545.5
1521	5.52667e+02	1.52100e+03	0.0225595	550.5
1531	5.57428e+02	1.53100e+03	0.022745	555.5
1541	5.62333e+02	1.54100e+03	0.0224817	560.5
1551	5.67199e+02	1.55100e+03	0.0226163	565.5
1561	5.72044e+02	1.56100e+03	0.0223274	570.5
1571	5.77094e+02	1.57100e+03	0.0223325	575.5
1581	5.82275e+02	1.58100e+03	0.0223181	580.5
1591	5.86856e+02	1.59100e+03	0.0223102	585.5
1601	5.91690e+02	1.60100e+03	0.0219729	590.5
1611	5.96537e+02	1.61100e+03	0.0216282	595.5
1621	6.01331e+02	1.62100e+03	0.0218795	600.5
1631	6.06236e+02	1.63100e+03	0.0218771	605.5
1641	6.11168e+02	1.64100e+03	0.0217578	610.5
1651	6.16077e+02	1.65100e+03	0.0217654	615.5
1661	6.20988e+02	1.66100e+03	0.0217022	620.5
1671	6.25828e+02	1.67100e+03	0.0220809	625.5
1681	6.30751e+02	1.68100e+03	0.02155	630.5
1691	6.35864e+02	1.69100e+03	0.0216351	635.5
1701	6.40927e+02	1.70100e+03	0.021608	640.5
1711	6.46066e+02	1.71100e+03	0.0214995	645.5
1721	6.51148e+02	1.72100e+03	0.0215583	650.5
1731	6.56179e+02	1.73100e+03	0.0213943	655.5
1741	6.61062e+02	1.74100e+03	0.0214734	660.5
1751	6.66053e+02	1.75100e+03	0.0213851	665.5
1761	6.70942e+02	1.76100e+03	0.0213833	670.5
1771	6.75938e+02	1.77100e+03	0.0213164	675.5
1781	6.80871e+02	1.78100e+03	0.0213948	680.5
1791	6.85881e+02	1.79100e+03	0.0211705	685.5
1801	6.89404e+02	1.80100e+03	0.0213796	690.5
1811	6.92234e+02	1.81100e+03	0.0212529	695.5
1821	6.94389e+02	1.82100e+03	0.0217458	700.0
1831	6.95969e+02	1.83100e+03	0.0209374	700.0
1841	6.97173e+02	1.84100e+03	0.0211824	700.0
1851	6.98040e+02	1.85100e+03	0.0214231	700.0
1861	6.98674e+02	1.86100e+03	0.021239	700.0
1871	6.99155e+02	1.87100e+03	0.0214618	700.0
1881	6.99540e+02	1.88100e+03	0.0215391	700.0
1891	6.99845e+02	1.89100e+03	0.0213725	700.0
1901	7.00047e+02	1.90100e+03	0.0214161	700.0
1911	7.00187e+02	1.91100e+03	0.021407	700.0
1921	7.00316e+02	1.92100e+03	0.0212811	700.0
1931	7.00421e+02	1.93100e+03	0.0213972	700.0
1941	7.00501e+02	1.94100e+03	0.0214919	700.0
1951	7.00555e+02	1.95100e+03	0.0213879	700.0
1961	7.00614e+02	1.96100e+03	0.0214181	700.0
1971	7.00648e+02	1.97100e+03	0.021481	700.0
1981	7.00680e+02	1.98100e+03	0.0214997	700.0
1991	7.00705e+02	1.99100e+03	0.0216354	700.0
2001	7.00709e+02	2.00100e+03	0.0214144	700.0
2011	7.00735e+02	2.01100e+03	0.0215473	700.0
2021	7.00736e+02	2.02100e+03	0.0214246	700.0
2031	7.00739e+02	2.03100e+03	0.0212968	700.0
2041	7.00739e+02	2.04100e+03	0.021222	700.0
2051	7.00728e+02	2.05100e+03	0.0214165	700.0
2061	7.00715e+02	2.06100e+03	0.0214145	700.0
2071	7.00713e+02	2.07100e+03	0.021204	700.0
2081	7.00711e+02	2.08100e+03	0.021172	700.0
2091	7.00704e+02	2.09100e+03	0.0212933	700.0
2101	7.00694e+02	2.10100e+03	0.0213578	700.0
2111	7.00685e+02	2.11100e+03	0.0214113	700.0
2121	7.00681e+02	2.12100e+03	0.0212886	700.0
2131	7.00670e+02	2.13100e+03	0.0214704	700.0
2141	7.00661e+02	2.14100e+03	0.0214834	700.0
2151	7.00638e+02	2.15100e+03	0.0214205	700.0
2161	7.00634e+02	2.16100e+03	0.021423	700.0
2171	7.00624e+02	2.17100e+03	0.0213922	700.0
2181	7.00613e+02	2.18100e+03	0.0214801	700.0
2191	7.00612e+02	2.19100e+03	0.0214105	700.0
2201	7.00600e+02	2.20100e+03	0.0215114	700.0
2211	7.00586e+02	2.21100e+03	0.0213172	700.0
2221	7.00572e+02	2.22100e+03	0.0213887	700.0
2231	7.00547e+02	2.23100e+03	0.0214419	700.0
2241	7.00528e+02	2.24100e+03	0.0213452	700.0
2251	7.00482e+02	2.25100e+03	0.0215434	700.0
2261	7.00455e+02	2.26100e+03	0.0214137	700.0
2271	7.00429e+02	2.27100e+03	0.0212255	700.0
2281	7.00401e+02	2.28100e+03	0.0218822	700.0
2291	7.00377e+02	2.29100e+03	0.0216332	700.0
2301	7.00365e+02	2.30100e+03	0.0214732	700.0
2311	7.00341e+02	2.31100e+03	0.0215522	700.0
2321	7.00336e+02	2.32100e+03	0.0215074	700.0
2331	7.00318e+02	2.33100e+03	0.0214749	700.0
2341	7.00303e+02	2.34100e+03	0.0217243	700.0
2351	7.00287e+02	2.35100e+03	0.0217832	700.0
2361	7.00261e+02	2.36100e+03	0.0216642	700.0
2371	7.00256e+02	2.37100e+03	0.0216234	700.0
2381	7.00239e+02	2.38100e+03	0.0215276	700.0
2391	7.00220e+02	2.39100e+03	0.0215326	700.0
2401	7.00216e+02	2.40100e+03	0.0216573	700.0
2411	7.00200e+02	2.41100e+03	0.0216784	700.0
2421	7.00193e+02	2.42100e+03	0.0218807	700.0
2431	7.00180e+02	2.43100e+03	0.0215329	700.0
2441	7.00169e+02	2.44100e+03	0.0214031	700.0
2451	7.00154e+02	2.45100e+03	0.0215025	700.0
2461	7.00144e+02	2.46100e+03	0.0215471	700.0
2471	7.00142e+02	2.47100e+03	0.0212747	700.0
2481	7.00135e+02	2.48100e+03	0.0212747	700.0
2491	7.00125e+02	2.49100e+03	0.0217869	700.0
2501	7.00116e+02	2.50100e+03	0.0214687	700.0
2511	7.00110e+02	2.51100e+03	0.0215433	700.0
2521	7.00102e+02	2.52100e+03	0.0214321	700.0
2531	7.00106e+02	2.53100e+03	0.0214686	700.0
2541	7.00087e+02	2.54100e+03	0.0215205	700.0
2551	7.00102e+02	2.55100e+03	0.0212732	700.0
2561	7.00094e+02	2.56100e+03	0.0215102	700.0
2571	7.00092e+02	2.57100e+03	0.021652	700.0
2581	7.00082e+02	2.58100e+03	0.021374	700.0
2591	7.00094e+02	2.59100e+03	0.0214402	700.0
2601	7.00089e+02	2.60100e+03	0.0214594	700.0
2611	7.00075e+02	2.61100e+03	0.0214067	700.0
2621	7.00073e+02	2.62100e+03	0.0215276	700.0
2631	7.00076e+02	2.63100e+03	0.0213947	700.0
2641	7.00070e+02	2.64100e+03	0.0214531	700.0
2651	7.00074e+02	2.65100e+03	0.0213073	700.0
2661	7.00076e+02	2.66100e+03	0.0213732	700.0
2671	7.00064e+02	2.67100e+03	0.021418	700.0
2681	7.00060e+02	2.68100e+03	0.0213544	700.0
2691	7.00069e+02	2.69100e+03	0.0211645	700.0
2701	7.00068e+02	2.70100e+03	0.0212884	700.0
2711	7.00059e+02	2.71100e+03	0.0213562	700.0
2720	7.00059e+02	2.72000e+03	0.0212683	700.0