Folder: Pyrolysis_BESKID/Experiments/TGA/TUBS/tga_nonisotherm (part 4)

File: tga_dynamic_n2_dyn10_powder_3mg_r2.txt
index	ts	t	weight	tr
[#]	[°C]	[s]	[mg]	[°C]
843	1.30879e+02	8.43000e+02	2.98602e+00	1.30500e+02
862	1.34096e+02	8.62000e+02	2.98525e+00	1.33667e+02
881	1.37311e+02	8.81000e+02	2.98470e+00	1.36833e+02
900	1.40528e+02	9.00000e+02	2.98341e+00	1.40000e+02
919	1.43728e+02	9.19000e+02	2.98220e+00	1.43167e+02
938	1.46951e+02	9.38000e+02	2.98105e+00	1.46333e+02
957	1.50161e+02	9.57000e+02	2.97924e+00	1.49500e+02
976	1.53397e+02	9.76000e+02	2.97724e+00	1.52667e+02
995	1.56607e+02	9.95000e+02	2.97489e+00	1.55833e+02
1014	1.59810e+02	1.01400e+03	2.97269e+00	1.59000e+02
1033	1.63043e+02	1.03300e+03	2.97018e+00	1.62167e+02
1052	1.66238e+02	1.05200e+03	2.96657e+00	1.65333e+02
1071	1.69465e+02	1.07100e+03	2.96207e+00	1.68500e+02
1090	1.72675e+02	1.09000e+03	2.95587e+00	1.71667e+02
1109	1.75887e+02	1.10900e+03	2.94777e+00	1.74833e+02
1128	1.79100e+02	1.12800e+03	2.93832e+00	1.78000e+02
1147	1.82318e+02	1.14700e+03	2.92657e+00	1.81167e+02
1166	1.85536e+02	1.16600e+03	2.91462e+00	1.84333e+02
1185	1.88751e+02	1.18500e+03	2.90383e+00	1.87500e+02
1204	1.91963e+02	1.20400e+03	2.89489e+00	1.90667e+02
1223	1.95185e+02	1.22300e+03	2.88770e+00	1.93833e+02
1242	1.98386e+02	1.24200e+03	2.88294e+00	1.97000e+02
1261	2.01604e+02	1.26100e+03	2.87942e+00	2.00167e+02
1280	2.04803e+02	1.28000e+03	2.87674e+00	2.03333e+02
1299	2.07976e+02	1.29900e+03	2.87393e+00	2.06500e+02
1318	2.11175e+02	1.31800e+03	2.87351e+00	2.09667e+02
1337	2.14372e+02	1.33700e+03	2.87049e+00	2.12833e+02
1356	2.17538e+02	1.35600e+03	2.86748e+00	2.16000e+02
1375	2.20733e+02	1.37500e+03	2.86519e+00	2.19167e+02
1394	2.23936e+02	1.39400e+03	2.86327e+00	2.22333e+02
1413	2.27136e+02	1.41300e+03	2.86152e+00	2.25500e+02
1432	2.30332e+02	1.43200e+03	2.85919e+00	2.28667e+02
1451	2.33620e+02	1.45100e+03	2.85826e+00	2.31833e+02
1470	2.36915e+02	1.47000e+03	2.85754e+00	2.35000e+02
1489	2.40100e+02	1.48900e+03	2.85649e+00	2.38167e+02
1508	2.43319e+02	1.50800e+03	2.85562e+00	2.41333e+02
1527	2.46531e+02	1.52700e+03	2.85459e+00	2.44500e+02
1546	2.49687e+02	1.54600e+03	2.85331e+00	2.47667e+02
1565	2.52863e+02	1.56500e+03	2.85223e+00	2.50833e+02
1584	2.56068e+02	1.58400e+03	2.85079e+00	2.54000e+02
1603	2.59245e+02	1.60300e+03	2.84964e+00	2.57167e+02
1622	2.62436e+02	1.62200e+03	2.84769e+00	2.60333e+02
1641	2.65603e+02	1.64100e+03	2.84574e+00	2.63500e+02
1660	2.68792e+02	1.66000e+03	2.84303e+00	2.66667e+02
1679	2.71952e+02	1.67900e+03	2.83964e+00	2.69833e+02
1698	2.75117e+02	1.69800e+03	2.83578e+00	2.73000e+02
1717	2.78260e+02	1.71700e+03	2.83067e+00	2.76167e+02
1736	2.81442e+02	1.73600e+03	2.82470e+00	2.79333e+02
1755	2.84555e+02	1.75500e+03	2.81749e+00	2.82500e+02
1774	2.87639e+02	1.77400e+03	2.80875e+00	2.85667e+02
1793	2.90705e+02	1.79300e+03	2.79819e+00	2.88833e+02
1812	2.93795e+02	1.81200e+03	2.78615e+00	2.92000e+02
1831	2.96859e+02	1.83100e+03	2.77219e+00	2.95167e+02
1850	2.99848e+02	1.85000e+03	2.75673e+00	2.98333e+02
1869	3.02860e+02	1.86900e+03	2.73990e+00	3.01500e+02
1888	3.05998e+02	1.88800e+03	2.72392e+00	3.04667e+02
1907	3.09138e+02	1.90700e+03	2.70823e+00	3.07833e+02
1926	3.12292e+02	1.92600e+03	2.69213e+00	3.11000e+02
1945	3.15436e+02	1.94500e+03	2.67494e+00	3.14167e+02
1964	3.18566e+02	1.96400e+03	2.65502e+00	3.17333e+02
1983	3.21708e+02	1.98300e+03	2.63185e+00	3.20500e+02
2002	3.24869e+02	2.00200e+03	2.60350e+00	3.23667e+02
2021	3.28004e+02	2.02100e+03	2.56895e+00	3.26833e+02
2040	3.31136e+02	2.04000e+03	2.52610e+00	3.30000e+02
2059	3.34274e+02	2.05900e+03	2.47348e+00	3.33167e+02
2078	3.37420e+02	2.07800e+03	2.41039e+00	3.36333e+02
2097	3.40551e+02	2.09700e+03	2.33392e+00	3.39500e+02
2116	3.43685e+02	2.11600e+03	2.24374e+00	3.42667e+02
2135	3.46850e+02	2.13500e+03	2.13968e+00	3.45833e+02
2154	3.50011e+02	2.15400e+03	2.02229e+00	3.49000e+02
2173	3.53165e+02	2.17300e+03	1.89221e+00	3.52167e+02
2192	3.56318e+02	2.19200e+03	1.75133e+00	3.55333e+02
2211	3.59462e+02	2.21100e+03	1.59993e+00	3.58500e+02
2230	3.62612e+02	2.23000e+03	1.44321e+00	3.61667e+02
2249	3.65799e+02	2.24900e+03	1.27997e+00	3.64833e+02
2268	3.68971e+02	2.26800e+03	1.11815e+00	3.68000e+02
2287	3.72145e+02	2.28700e+03	9.50075e-01	3.71167e+02
2306	3.75346e+02	2.30600e+03	7.93000e-01	3.74333e+02
2325	3.78551e+02	2.32500e+03	6.48596e-01	3.77500e+02
2344	3.81742e+02	2.34400e+03	5.19349e-01	3.80667e+02
2363	3.84946e+02	2.36300e+03	4.07067e-01	3.83833e+02
2382	3.88135e+02	2.38200e+03	3.12173e-01	3.87000e+02
2401	3.91318e+02	2.40100e+03	2.33785e-01	3.90167e+02
2420	3.94511e+02	2.42000e+03	1.70756e-01	3.93333e+02
2439	3.97774e+02	2.43900e+03	1.20963e-01	3.96500e+02
2458	4.00991e+02	2.45800e+03	8.27835e-02	3.99667e+02
2477	4.04163e+02	2.47700e+03	5.43303e-02	4.02833e+02
2496	4.07309e+02	2.49600e+03	3.39683e-02	4.06000e+02
2515	4.10463e+02	2.51500e+03	1.99446e-02	4.09167e+02
2534	4.13648e+02	2.53400e+03	9.91462e-03	4.12333e+02
2553	4.16811e+02	2.55300e+03	3.24531e-03	4.15500e+02
2572	4.19968e+02	2.57200e+03	-1.48093e-03	4.18667e+02
2591	4.23131e+02	2.59100e+03	-4.60112e-03	4.21833e+02
2610	4.26263e+02	2.61000e+03	-6.88409e-03	4.25000e+02
2629	4.29370e+02	2.62900e+03	-7.95510e-03	4.28167e+02
2648	4.32479e+02	2.64800e+03	-8.99802e-03	4.31333e+02
2667	4.35582e+02	2.66700e+03	-9.55271e-03	4.34500e+02
2686	4.38672e+02	2.68600e+03	-1.02305e-02	4.37667e+02
2705	4.41804e+02	2.70500e+03	-1.00976e-02	4.40833e+02
2724	4.44912e+02	2.72400e+03	-1.04822e-02	4.44000e+02
2743	4.48017e+02	2.74300e+03	-1.04065e-02	4.47167e+02
2762	4.51138e+02	2.76200e+03	-1.07880e-02	4.50333e+02
2781	4.54251e+02	2.78100e+03	-1.08944e-02	4.53500e+02
2800	4.57330e+02	2.80000e+03	-1.09508e-02	4.56667e+02
2819	4.60340e+02	2.81900e+03	-1.11254e-02	4.59833e+02
2838	4.63431e+02	2.83800e+03	-1.11956e-02	4.63000e+02
2857	4.66537e+02	2.85700e+03	-1.13714e-02	4.66167e+02
2876	4.69631e+02	2.87600e+03	-1.15240e-02	4.69333e+02
2895	4.72757e+02	2.89500e+03	-1.15799e-02	4.72500e+02
2914	4.75859e+02	2.91400e+03	-1.14865e-02	4.75667e+02
2933	4.78958e+02	2.93300e+03	-1.16666e-02	4.78833e+02
2952	4.82082e+02	2.95200e+03	-1.17035e-02	4.82000e+02
2971	4.85198e+02	2.97100e+03	-1.16988e-02	4.85167e+02
2990	4.88322e+02	2.99000e+03	-1.20557e-02	4.88333e+02
3009	4.91428e+02	3.00900e+03	-1.17542e-02	4.91500e+02
3028	4.94548e+02	3.02800e+03	-1.16910e-02	4.94667e+02
3047	4.97675e+02	3.04700e+03	-1.18734e-02	4.97833e+02
3066	5.00802e+02	3.06600e+03	-1.19048e-02	5.01000e+02
3085	5.03936e+02	3.08500e+03	-1.19106e-02	5.04167e+02
3104	5.07062e+02	3.10400e+03	-1.20977e-02	5.07333e+02
3123	5.10191e+02	3.12300e+03	-1.20556e-02	5.10500e+02
3142	5.13329e+02	3.14200e+03	-1.18066e-02	5.13667e+02
3161	5.16473e+02	3.16100e+03	-1.17658e-02	5.16833e+02
3180	5.19607e+02	3.18000e+03	-1.19618e-02	5.20000e+02
3199	5.22758e+02	3.19900e+03	-1.18093e-02	5.23167e+02
3218	5.25894e+02	3.21800e+03	-1.21997e-02	5.26333e+02
3237	5.29023e+02	3.23700e+03	-1.21327e-02	5.29500e+02
3256	5.32157e+02	3.25600e+03	-1.17484e-02	5.32667e+02
3275	5.35310e+02	3.27500e+03	-1.22701e-02	5.35833e+02
3294	5.38451e+02	3.29400e+03	-1.21374e-02	5.39000e+02
3313	5.41597e+02	3.31300e+03	-1.13785e-02	5.42167e+02
3332	5.44801e+02	3.33200e+03	-1.17947e-02	5.45333e+02
3351	5.47971e+02	3.35100e+03	-1.20770e-02	5.48500e+02
3370	5.51108e+02	3.37000e+03	-1.20767e-02	5.51667e+02
3389	5.54258e+02	3.38900e+03	-1.20286e-02	5.54833e+02
3408	5.57407e+02	3.40800e+03	-1.22291e-02	5.58000e+02
3427	5.60541e+02	3.42700e+03	-1.20897e-02	5.61167e+02
3446	5.63686e+02	3.44600e+03	-1.21082e-02	5.64333e+02
3465	5.66831e+02	3.46500e+03	-1.22153e-02	5.67500e+02
3484	5.69957e+02	3.48400e+03	-1.22747e-02	5.70667e+02
3503	5.73089e+02	3.50300e+03	-1.23657e-02	5.73833e+02
3522	5.76232e+02	3.52200e+03	-1.26341e-02	5.77000e+02
3541	5.79369e+02	3.54100e+03	-1.23875e-02	5.80167e+02
3560	5.82527e+02	3.56000e+03	-1.25744e-02	5.83333e+02
3579	5.85674e+02	3.57900e+03	-1.27017e-02	5.86500e+02
3598	5.88835e+02	3.59800e+03	-1.27619e-02	5.89667e+02
3617	5.91978e+02	3.61700e+03	-1.25825e-02	5.92833e+02
3636	5.95143e+02	3.63600e+03	-1.27039e-02	5.96000e+02
3655	5.98299e+02	3.65500e+03	-1.26153e-02	5.99167e+02
3674	6.01472e+02	3.67400e+03	-1.26952e-02	6.02333e+02
3693	6.04665e+02	3.69300e+03	-1.26351e-02	6.05500e+02
3712	6.07863e+02	3.71200e+03	-1.27301e-02	6.08667e+02
3731	6.11192e+02	3.73100e+03	-1.27719e-02	6.11833e+02
3750	6.15865e+02	3.75000e+03	-1.29782e-02	6.15000e+02
3769	6.18717e+02	3.76900e+03	-1.28003e-02	6.18167e+02
3788	6.21747e+02	3.78800e+03	-1.28593e-02	6.21333e+02
3807	6.24801e+02	3.80700e+03	-1.30107e-02	6.24500e+02
3826	6.27888e+02	3.82600e+03	-1.28507e-02	6.27667e+02
3845	6.30978e+02	3.84500e+03	-1.29372e-02	6.30833e+02
3864	6.34076e+02	3.86400e+03	-1.29001e-02	6.34000e+02
3883	6.37171e+02	3.88300e+03	-1.30760e-02	6.37167e+02
3902	6.40276e+02	3.90200e+03	-1.30792e-02	6.40333e+02
3921	6.43379e+02	3.92100e+03	-1.30644e-02	6.43500e+02
3940	6.46499e+02	3.94000e+03	-1.32917e-02	6.46667e+02
3959	6.49620e+02	3.95900e+03	-1.27991e-02	6.49833e+02
3978	6.52757e+02	3.97800e+03	-1.30878e-02	6.53000e+02
3997	6.55880e+02	3.99700e+03	-1.32180e-02	6.56167e+02
4016	6.58984e+02	4.01600e+03	-1.33053e-02	6.59333e+02
4035	6.62118e+02	4.03500e+03	-1.33320e-02	6.62500e+02
4054	6.65220e+02	4.05400e+03	-1.34754e-02	6.65667e+02
4073	6.68357e+02	4.07300e+03	-1.33614e-02	6.68833e+02
4092	6.71468e+02	4.09200e+03	-1.33439e-02	6.72000e+02
4111	6.74599e+02	4.11100e+03	-1.34896e-02	6.75167e+02
4130	6.77727e+02	4.13000e+03	-1.36028e-02	6.78333e+02
4149	6.80851e+02	4.14900e+03	-1.37865e-02	6.81500e+02
4168	6.83979e+02	4.16800e+03	-1.37705e-02	6.84667e+02
4187	6.87108e+02	4.18700e+03	-1.38001e-02	6.87833e+02
4206	6.90253e+02	4.20600e+03	-1.33573e-02	6.91000e+02
4225	6.93405e+02	4.22500e+03	-1.35949e-02	6.94167e+02
4244	6.95966e+02	4.24400e+03	-1.37707e-02	6.97333e+02
4260	6.97327e+02	4.26000e+03	-1.38910e-02	7.00000e+02

File: tga_dynamic_n2_dyn20_piece_2mg_r2.txt
index	ts	t	weight	tr
[#]	[°C]	[s]	[mg]	[°C]
723	1.30263e+02	7.23000e+02	2.04017e+00	1.31000e+02
733	1.33588e+02	7.33000e+02	2.04005e+00	1.34333e+02
743	1.36909e+02	7.43000e+02	2.04001e+00	1.37667e+02
753	1.40228e+02	7.53000e+02	2.03991e+00	1.41000e+02
763	1.43559e+02	7.63000e+02	2.03985e+00	1.44333e+02
773	1.46915e+02	7.73000e+02	2.03971e+00	1.47667e+02
783	1.50254e+02	7.83000e+02	2.03956e+00	1.51000e+02
793	1.53599e+02	7.93000e+02	2.03946e+00	1.54333e+02
803	1.56957e+02	8.03000e+02	2.03925e+00	1.57667e+02
813	1.60292e+02	8.13000e+02	2.03906e+00	1.61000e+02
823	1.63656e+02	8.23000e+02	2.03901e+00	1.64333e+02
833	1.67000e+02	8.33000e+02	2.03889e+00	1.67667e+02
843	1.70364e+02	8.43000e+02	2.03880e+00	1.71000e+02
853	1.73713e+02	8.53000e+02	2.03844e+00	1.74333e+02
863	1.77095e+02	8.63000e+02	2.03798e+00	1.77667e+02
873	1.80443e+02	8.73000e+02	2.03753e+00	1.81000e+02
883	1.83825e+02	8.83000e+02	2.03681e+00	1.84333e+02
893	1.87196e+02	8.93000e+02	2.03570e+00	1.87667e+02
903	1.90560e+02	9.03000e+02	2.03431e+00	1.91000e+02
913	1.93944e+02	9.13000e+02	2.03243e+00	1.94333e+02
923	1.97336e+02	9.23000e+02	2.03047e+00	1.97667e+02
933	2.00725e+02	9.33000e+02	2.02819e+00	2.01000e+02
943	2.04093e+02	9.43000e+02	2.02562e+00	2.04333e+02
953	2.07481e+02	9.53000e+02	2.02320e+00	2.07667e+02
963	2.10860e+02	9.63000e+02	2.02068e+00	2.11000e+02
973	2.14243e+02	9.73000e+02	2.01807e+00	2.14333e+02
983	2.17628e+02	9.83000e+02	2.01553e+00	2.17667e+02
993	2.20999e+02	9.93000e+02	2.01304e+00	2.21000e+02
1003	2.24372e+02	1.00300e+03	2.01044e+00	2.24333e+02
1013	2.27742e+02	1.01300e+03	2.00745e+00	2.27667e+02
1023	2.31118e+02	1.02300e+03	2.00466e+00	2.31000e+02
1033	2.34498e+02	1.03300e+03	2.00177e+00	2.34333e+02
1043	2.37862e+02	1.04300e+03	1.99891e+00	2.37667e+02
1053	2.41219e+02	1.05300e+03	1.99605e+00	2.41000e+02
1063	2.44595e+02	1.06300e+03	1.99308e+00	2.44333e+02
1073	2.47967e+02	1.07300e+03	1.99021e+00	2.47667e+02
1083	2.51340e+02	1.08300e+03	1.98745e+00	2.51000e+02
1093	2.54714e+02	1.09300e+03	1.98456e+00	2.54333e+02
1103	2.58057e+02	1.10300e+03	1.98170e+00	2.57667e+02
1113	2.61420e+02	1.11300e+03	1.97872e+00	2.61000e+02
1123	2.64776e+02	1.12300e+03	1.97586e+00	2.64333e+02
1133	2.68149e+02	1.13300e+03	1.97314e+00	2.67667e+02
1143	2.71493e+02	1.14300e+03	1.97028e+00	2.71000e+02
1153	2.74850e+02	1.15300e+03	1.96753e+00	2.74333e+02
1163	2.78200e+02	1.16300e+03	1.96462e+00	2.77667e+02
1173	2.81560e+02	1.17300e+03	1.96151e+00	2.81000e+02
1183	2.84905e+02	1.18300e+03	1.95820e+00	2.84333e+02
1193	2.88257e+02	1.19300e+03	1.95451e+00	2.87667e+02
1203	2.91600e+02	1.20300e+03	1.95052e+00	2.91000e+02
1213	2.94944e+02	1.21300e+03	1.94614e+00	2.94333e+02
1223	2.98285e+02	1.22300e+03	1.94087e+00	2.97667e+02
1233	3.01637e+02	1.23300e+03	1.93494e+00	3.01000e+02
1243	3.04982e+02	1.24300e+03	1.92839e+00	3.04333e+02
1253	3.08305e+02	1.25300e+03	1.92106e+00	3.07667e+02
1263	3.11652e+02	1.26300e+03	1.91330e+00	3.11000e+02
1273	3.15003e+02	1.27300e+03	1.90527e+00	3.14333e+02
1283	3.18341e+02	1.28300e+03	1.89698e+00	3.17667e+02
1293	3.21658e+02	1.29300e+03	1.88831e+00	3.21000e+02
1303	3.25008e+02	1.30300e+03	1.87890e+00	3.24333e+02
1313	3.28338e+02	1.31300e+03	1.86822e+00	3.27667e+02
1323	3.31672e+02	1.32300e+03	1.85574e+00	3.31000e+02
1333	3.34988e+02	1.33300e+03	1.84066e+00	3.34333e+02
1343	3.38317e+02	1.34300e+03	1.82237e+00	3.37667e+02
1353	3.41634e+02	1.35300e+03	1.79933e+00	3.41000e+02
1363	3.44931e+02	1.36300e+03	1.77123e+00	3.44333e+02
1373	3.48244e+02	1.37300e+03	1.73610e+00	3.47667e+02
1383	3.51540e+02	1.38300e+03	1.69343e+00	3.51000e+02
1393	3.54837e+02	1.39300e+03	1.64064e+00	3.54333e+02
1403	3.58113e+02	1.40300e+03	1.57672e+00	3.57667e+02
1413	3.61409e+02	1.41300e+03	1.49994e+00	3.61000e+02
1423	3.64687e+02	1.42300e+03	1.41068e+00	3.64333e+02
1433	3.67967e+02	1.43300e+03	1.30670e+00	3.67667e+02
1443	3.71270e+02	1.44300e+03	1.19267e+00	3.71000e+02
1453	3.74563e+02	1.45300e+03	1.07019e+00	3.74333e+02
1463	3.77854e+02	1.46300e+03	9.43822e-01	3.77667e+02
1473	3.81183e+02	1.47300e+03	8.17505e-01	3.81000e+02
1483	3.84489e+02	1.48300e+03	6.94663e-01	3.84333e+02
1493	3.87823e+02	1.49300e+03	5.74627e-01	3.87667e+02
1503	3.91165e+02	1.50300e+03	4.55374e-01	3.91000e+02
1513	3.94533e+02	1.51300e+03	3.45154e-01	3.94333e+02
1523	3.97914e+02	1.52300e+03	2.51410e-01	3.97667e+02
1533	4.01292e+02	1.53300e+03	1.76877e-01	4.01000e+02
1543	4.04654e+02	1.54300e+03	1.19789e-01	4.04333e+02
1553	4.08019e+02	1.55300e+03	7.79533e-02	4.07667e+02
1563	4.11372e+02	1.56300e+03	4.79867e-02	4.11000e+02
1573	4.14721e+02	1.57300e+03	2.76699e-02	4.14333e+02
1583	4.18052e+02	1.58300e+03	1.36110e-02	4.17667e+02
1593	4.21380e+02	1.59300e+03	4.01645e-03	4.21000e+02
1603	4.24708e+02	1.60300e+03	-2.74241e-03	4.24333e+02
1613	4.28015e+02	1.61300e+03	-7.54747e-03	4.27667e+02
1623	4.31338e+02	1.62300e+03	-1.11019e-02	4.31000e+02
1633	4.34644e+02	1.63300e+03	-1.37891e-02	4.34333e+02
1643	4.37956e+02	1.64300e+03	-1.57488e-02	4.37667e+02
1653	4.41259e+02	1.65300e+03	-1.72432e-02	4.41000e+02
1663	4.44566e+02	1.66300e+03	-1.83040e-02	4.44333e+02
1673	4.47860e+02	1.67300e+03	-1.89448e-02	4.47667e+02
1683	4.51167e+02	1.68300e+03	-1.92694e-02	4.51000e+02
1693	4.54466e+02	1.69300e+03	-1.91990e-02	4.54333e+02
1703	4.57776e+02	1.70300e+03	-1.92551e-02	4.57667e+02
1713	4.61060e+02	1.71300e+03	-1.94616e-02	4.61000e+02
1723	4.64361e+02	1.72300e+03	-1.96917e-02	4.64333e+02
1733	4.67657e+02	1.73300e+03	-1.96791e-02	4.67667e+02
1743	4.70963e+02	1.74300e+03	-1.97125e-02	4.71000e+02
1753	4.74259e+02	1.75300e+03	-1.97930e-02	4.74333e+02
1763	4.77553e+02	1.76300e+03	-1.99855e-02	4.77667e+02
1773	4.80857e+02	1.77300e+03	-2.00088e-02	4.81000e+02
1783	4.84155e+02	1.78300e+03	-2.00262e-02	4.84333e+02
1793	4.87451e+02	1.79300e+03	-2.00304e-02	4.87667e+02
1803	4.90753e+02	1.80300e+03	-2.00124e-02	4.91000e+02
1813	4.94057e+02	1.81300e+03	-2.00202e-02	4.94333e+02
1823	4.97356e+02	1.82300e+03	-2.00485e-02	4.97667e+02
1833	5.00655e+02	1.83300e+03	-2.01858e-02	5.01000e+02
1843	5.03953e+02	1.84300e+03	-2.02659e-02	5.04333e+02
1853	5.07250e+02	1.85300e+03	-2.03488e-02	5.07667e+02
1863	5.10571e+02	1.86300e+03	-2.04551e-02	5.11000e+02
1873	5.13872e+02	1.87300e+03	-2.04265e-02	5.14333e+02
1883	5.17174e+02	1.88300e+03	-2.03040e-02	5.17667e+02
1893	5.20482e+02	1.89300e+03	-2.03055e-02	5.21000e+02
1903	5.23794e+02	1.90300e+03	-2.02416e-02	5.24333e+02
1913	5.27112e+02	1.91300e+03	-2.03609e-02	5.27667e+02
1923	5.30404e+02	1.92300e+03	-2.03588e-02	5.31000e+02
1933	5.33725e+02	1.93300e+03	-2.03613e-02	5.34333e+02
1943	5.37018e+02	1.94300e+03	-2.01965e-02	5.37667e+02
1953	5.40348e+02	1.95300e+03	-2.03316e-02	5.41000e+02
1963	5.43657e+02	1.96300e+03	-2.04517e-02	5.44333e+02
1973	5.46961e+02	1.97300e+03	-2.04169e-02	5.47667e+02
1983	5.50284e+02	1.98300e+03	-2.05064e-02	5.51000e+02
1993	5.53592e+02	1.99300e+03	-2.06116e-02	5.54333e+02
2003	5.56915e+02	2.00300e+03	-2.05491e-02	5.57667e+02
2013	5.60228e+02	2.01300e+03	-2.04785e-02	5.61000e+02
2023	5.63548e+02	2.02300e+03	-2.04541e-02	5.64333e+02
2033	5.66863e+02	2.03300e+03	-2.04300e-02	5.67667e+02
2043	5.70177e+02	2.04300e+03	-2.04659e-02	5.71000e+02
2053	5.73493e+02	2.05300e+03	-2.04460e-02	5.74333e+02
2063	5.76804e+02	2.06300e+03	-2.06182e-02	5.77667e+02
2073	5.80131e+02	2.07300e+03	-2.05145e-02	5.81000e+02
2083	5.83464e+02	2.08300e+03	-2.04504e-02	5.84333e+02
2093	5.86761e+02	2.09300e+03	-2.05136e-02	5.87667e+02
2103	5.90094e+02	2.10300e+03	-2.05954e-02	5.91000e+02
2113	5.93407e+02	2.11300e+03	-2.05918e-02	5.94333e+02
2123	5.96729e+02	2.12300e+03	-2.06405e-02	5.97667e+02
2133	6.00042e+02	2.13300e+03	-2.06615e-02	6.01000e+02
2143	6.03364e+02	2.14300e+03	-2.05353e-02	6.04333e+02
2153	6.06689e+02	2.15300e+03	-2.05654e-02	6.07667e+02
2163	6.10004e+02	2.16300e+03	-2.05718e-02	6.11000e+02
2173	6.13318e+02	2.17300e+03	-2.05589e-02	6.14333e+02
2183	6.16652e+02	2.18300e+03	-2.04805e-02	6.17667e+02
2193	6.19970e+02	2.19300e+03	-2.06604e-02	6.21000e+02
2203	6.23291e+02	2.20300e+03	-2.05992e-02	6.24333e+02
2213	6.26624e+02	2.21300e+03	-2.06159e-02	6.27667e+02
2223	6.29947e+02	2.22300e+03	-2.06192e-02	6.31000e+02
2233	6.33275e+02	2.23300e+03	-2.05696e-02	6.34333e+02
2243	6.36607e+02	2.24300e+03	-2.05866e-02	6.37667e+02
2253	6.39935e+02	2.25300e+03	-2.06984e-02	6.41000e+02
2263	6.43259e+02	2.26300e+03	-2.06187e-02	6.44333e+02
2273	6.46586e+02	2.27300e+03	-2.07019e-02	6.47667e+02
2283	6.49917e+02	2.28300e+03	-2.06669e-02	6.51000e+02
2293	6.53238e+02	2.29300e+03	-2.05970e-02	6.54333e+02
2303	6.56579e+02	2.30300e+03	-2.05775e-02	6.57667e+02
2313	6.59888e+02	2.31300e+03	-2.05571e-02	6.61000e+02
2323	6.63208e+02	2.32300e+03	-2.05281e-02	6.64333e+02
2333	6.66527e+02	2.33300e+03	-2.06697e-02	6.67667e+02
2343	6.69858e+02	2.34300e+03	-2.06287e-02	6.71000e+02
2353	6.73194e+02	2.35300e+03	-2.06036e-02	6.74333e+02
2363	6.76518e+02	2.36300e+03	-2.06389e-02	6.77667e+02
2373	6.79855e+02	2.37300e+03	-2.07712e-02	6.81000e+02
2383	6.83189e+02	2.38300e+03	-2.07237e-02	6.84333e+02
2393	6.86515e+02	2.39300e+03	-2.07950e-02	6.87667e+02
2403	6.89854e+02	2.40300e+03	-2.08778e-02	6.91000e+02
2413	6.92073e+02	2.41300e+03	-2.09577e-02	6.94333e+02
2423	6.93893e+02	2.42300e+03	-2.09286e-02	6.97667e+02
2430	6.94878e+02	2.43000e+03	-2.08291e-02	7.00000e+02