Folder: Pyrolysis_BESKID/Experiments/TUBS/mcc (part 2)

File: mcc_piece_2mg_dyn30_r1.txt
Sample Weight (mg):	2
Heating Rate (C/s):	0.5
Combustor Temp (C):	900
N2 Flow Rate (cc/min):	80
O2 Flow Rate (cc/min):	20
Time (s)	Temperature (C)	N2 flow rate (cc/min)	O2 flow rate (cc/min)	Flow Rate (cc/min)	Oxygen (%)	HRR (W/g)	Heating rate (C/s)
0.000	90.134	79.997	20.008	99.689	20.169	0.799	-0.126
8.000	89.283	80.001	20.009	99.930	20.126	7.493	-0.114
16.000	88.447	80.000	20.009	100.219	20.091	13.036	-0.070
24.000	87.952	79.999	20.008	100.201	20.092	12.869	-0.068
32.000	87.712	80.000	20.008	100.164	20.090	13.170	-0.091
40.000	87.723	79.999	20.008	100.249	20.078	15.156	0.014
48.001	87.966	80.000	20.009	100.262	20.067	16.805	0.066
56.001	88.592	79.999	20.009	100.316	20.058	18.246	0.130
64.001	89.704	80.001	20.009	100.333	20.057	18.399	0.147
72.000	91.354	80.000	20.009	100.352	20.056	18.523	0.236
80.000	93.258	80.000	20.008	100.373	20.043	20.563	0.309
88.000	95.518	80.001	20.009	100.430	20.043	20.567	0.338
96.001	98.138	80.001	20.009	100.419	20.041	20.930	0.346
104.001	101.378	79.999	20.009	100.435	20.039	21.164	0.426
112.000	104.863	80.000	20.009	100.455	20.042	20.708	0.468
120.000	108.602	80.001	20.009	100.431	20.045	20.312	0.523
128.000	112.738	80.000	20.009	100.416	20.046	20.175	0.528
136.000	117.076	79.999	20.009	100.410	20.048	19.739	0.577
144.000	121.603	80.001	20.009	100.416	20.053	19.057	0.551
152.000	126.202	80.000	20.009	100.396	20.057	18.311	0.574
160.000	130.839	80.001	20.009	100.369	20.058	18.209	0.566
168.000	135.692	80.000	20.009	100.352	20.058	18.269	0.629
176.000	140.402	80.000	20.009	100.357	20.065	17.152	0.607
184.000	145.161	80.001	20.009	100.341	20.071	16.147	0.553
192.000	149.909	80.000	20.008	100.299	20.069	16.534	0.599
200.000	154.557	80.001	20.008	100.249	20.070	16.396	0.553
208.000	159.135	80.001	20.008	100.312	20.076	15.422	0.586
216.000	163.594	80.000	20.008	100.299	20.075	15.576	0.526
224.000	168.046	80.002	20.009	100.348	20.078	15.096	0.560
232.000	172.412	80.000	20.009	100.296	20.072	15.958	0.527
240.000	176.810	80.001	20.009	100.387	20.068	16.628	0.529
248.000	181.065	80.000	20.009	100.250	20.069	16.472	0.523
256.000	185.298	80.000	20.009	100.242	20.066	16.956	0.499
264.000	189.524	80.001	20.009	100.263	20.071	16.222	0.517
272.000	193.659	80.001	20.009	100.278	20.072	16.089	0.507
280.000	197.719	80.000	20.009	100.408	20.071	16.168	0.486
288.000	201.736	80.000	20.009	100.244	20.068	16.633	0.488
296.000	205.732	80.001	20.009	100.382	20.068	16.581	0.514
304.000	209.765	80.000	20.008	100.259	20.068	16.698	0.519
312.000	213.752	80.000	20.008	100.260	20.070	16.270	0.529
320.000	217.688	79.999	20.009	100.245	20.066	16.915	0.505
328.000	221.717	80.001	20.009	100.242	20.066	16.954	0.477
336.000	225.788	80.001	20.009	100.235	20.066	16.945	0.552
344.000	229.797	80.001	20.009	100.216	20.068	16.602	0.484
352.000	233.837	80.000	20.009	100.211	20.063	17.355	0.462
360.000	237.966	80.001	20.009	100.225	20.066	16.879	0.548
368.000	242.007	80.001	20.009	100.200	20.067	16.801	0.543
376.000	246.096	79.999	20.007	100.266	20.065	17.071	0.483
384.000	250.142	80.001	20.008	100.213	20.073	15.857	0.462
392.000	254.105	80.002	20.008	100.208	20.069	16.510	0.458
400.000	258.142	80.000	20.008	100.249	20.068	16.661	0.516
408.000	262.102	80.001	20.008	100.235	20.070	16.372	0.492
416.000	266.091	80.002	20.008	100.227	20.063	17.418	0.497
424.000	270.191	80.001	20.008	100.218	20.060	17.868	0.518
432.000	274.213	80.001	20.008	100.239	20.054	18.796	0.515
440.000	278.329	80.000	20.008	100.239	20.047	19.924	0.493
448.000	282.349	80.000	20.008	100.205	20.037	21.526	0.487
456.000	286.391	80.001	20.008	100.229	20.031	22.444	0.462
464.000	290.384	80.001	20.008	100.230	20.018	24.503	0.511
472.000	294.367	80.001	20.007	100.247	20.012	25.404	0.477
480.000	298.391	80.001	20.008	100.236	20.001	27.106	0.514
488.000	302.417	80.001	20.008	100.225	20.002	26.897	0.508
496.000	306.444	80.000	20.008	100.212	19.991	28.654	0.520
504.000	310.565	80.001	20.008	100.197	19.976	31.007	0.508
512.000	314.621	80.000	20.007	100.229	19.957	34.032	0.513
520.001	318.713	80.001	20.007	100.202	19.919	39.993	0.500
528.000	322.849	80.001	20.008	100.203	19.876	46.746	0.534
536.000	326.909	80.001	20.008	100.201	19.796	59.192	0.485
544.000	330.969	80.000	20.008	100.186	19.699	74.399	0.537
552.000	334.921	80.000	20.008	100.194	19.615	87.424	0.487
560.000	338.887	79.999	20.008	100.254	19.486	107.628	0.491
568.000	342.870	80.000	20.009	100.183	19.354	128.290	0.547
576.000	346.842	80.000	20.010	100.200	19.216	149.930	0.510
584.000	350.690	80.000	20.009	100.228	19.075	172.010	0.484
592.000	354.706	80.000	20.008	100.237	18.958	190.321	0.532
600.000	358.688	80.000	20.008	100.248	18.875	203.345	0.520
608.000	362.586	79.999	20.009	100.226	18.821	211.793	0.508
616.000	366.546	80.001	20.009	100.301	18.794	215.941	0.476
624.000	370.411	79.999	20.009	100.279	18.795	215.942	0.465
632.000	374.360	80.001	20.009	100.254	18.874	203.407	0.512
640.000	378.299	80.000	20.009	100.373	18.966	189.083	0.501
648.000	382.127	79.999	20.009	100.255	19.141	161.813	0.461
656.000	385.967	80.001	20.008	100.361	19.297	137.366	0.492
664.000	389.905	80.000	20.008	100.328	19.439	115.115	0.499
672.000	393.905	79.999	20.009	100.337	19.555	96.928	0.446
680.000	397.982	80.000	20.009	100.276	19.686	76.430	0.508
688.000	401.974	80.001	20.009	100.295	19.807	57.529	0.497
696.000	405.941	80.001	20.009	100.283	19.890	44.427	0.487
704.000	409.974	79.999	20.009	100.266	19.953	34.614	0.514
712.000	414.046	79.999	20.009	100.228	20.001	27.098	0.489
720.000	418.138	80.001	20.008	100.239	20.035	21.741	0.534
728.000	422.126	80.001	20.009	100.203	20.050	19.506	0.498
736.000	426.052	80.001	20.008	100.219	20.070	16.260	0.497
744.000	429.999	80.001	20.008	100.244	20.079	14.958	0.493
752.000	434.001	80.000	20.008	100.209	20.089	13.347	0.491
760.000	437.790	80.000	20.008	100.194	20.098	11.874	0.483
768.000	441.735	80.001	20.008	100.183	20.100	11.645	0.463
776.000	445.713	80.001	20.008	100.195	20.105	10.861	0.497
784.000	449.619	80.001	20.008	100.209	20.110	10.067	0.482
792.000	453.508	80.001	20.008	100.201	20.111	9.839	0.445
800.000	457.577	80.002	20.008	100.186	20.111	9.868	0.502
808.000	461.612	80.001	20.008	100.197	20.111	9.905	0.523
816.000	465.509	80.001	20.008	100.210	20.114	9.389	0.481
824.000	469.445	79.999	20.007	100.229	20.115	9.216	0.466
832.000	473.312	80.000	20.008	100.227	20.119	8.712	0.468
840.000	477.144	80.000	20.008	100.176	20.112	9.817	0.490
848.000	481.063	80.001	20.008	100.166	20.105	10.777	0.496
856.000	485.089	80.000	20.008	100.182	20.107	10.578	0.541
864.000	489.044	80.002	20.008	100.197	20.112	9.753	0.501
872.000	493.012	80.002	20.008	100.201	20.108	10.456	0.496
880.000	496.986	80.000	20.008	100.147	20.108	10.389	0.456
888.000	500.914	80.001	20.008	100.181	20.114	9.490	0.468
896.000	504.763	80.001	20.008	100.137	20.110	10.097	0.434
904.000	508.537	80.002	20.008	100.159	20.104	10.968	0.445
912.000	512.389	80.000	20.008	100.163	20.104	11.069	0.479
920.000	516.279	80.000	20.007	100.205	20.109	10.165	0.497
928.000	520.251	79.999	20.008	100.207	20.104	10.948	0.493
936.000	524.246	80.000	20.008	100.222	20.110	10.108	0.507
944.000	528.327	79.999	20.008	100.229	20.111	9.840	0.523
952.000	532.419	80.000	20.007	100.241	20.115	9.262	0.524
960.000	536.436	80.002	20.008	100.239	20.112	9.767	0.491
968.000	540.460	80.001	20.008	100.209	20.106	10.621	0.450
976.000	544.457	80.001	20.008	100.209	20.106	10.720	0.458
984.000	548.525	80.000	20.008	100.219	20.107	10.462	0.515
992.000	552.570	80.000	20.007	100.183	20.104	10.978	0.525
1000.000	556.544	80.000	20.007	100.233	20.105	10.867	0.465
1008.000	560.495	80.000	20.008	100.176	20.102	11.255	0.492
1016.000	564.451	80.000	20.008	100.176	20.105	10.785	0.515
1024.001	568.377	80.001	20.008	100.191	20.108	10.432	0.492
1032.000	572.419	80.000	20.007	100.207	20.108	10.404	0.510
1040.001	576.272	80.000	20.007	100.227	20.111	9.939	0.513
1048.000	580.212	80.002	20.008	100.255	20.112	9.774	0.484
1056.001	584.183	79.999	20.008	100.210	20.108	10.413	0.466
1064.000	588.180	80.000	20.008	100.232	20.109	10.295	0.487
1072.000	592.079	80.001	20.008	100.271	20.118	8.878	0.490
1080.000	596.063	80.000	20.008	100.240	20.110	10.125	0.510
1088.001	600.044	79.999	20.008	100.200	20.106	10.710	0.490
1096.001	604.006	80.001	20.008	100.232	20.107	10.519	0.499
1104.000	608.058	80.000	20.007	100.279	20.114	9.435	0.505
1112.000	612.089	80.001	20.008	100.242	20.110	10.038	0.511
1120.000	616.092	80.000	20.008	100.176	20.104	10.959	0.480
1128.000	620.070	80.000	20.008	100.222	20.103	11.104	0.477
1136.001	623.903	79.999	20.008	100.254	20.107	10.512	0.502
1144.001	627.908	80.002	20.008	100.198	20.104	11.001	0.486
1152.000	631.896	79.999	20.008	100.191	20.098	11.893	0.483
1160.001	635.837	79.999	20.008	100.254	20.102	11.337	0.445
1168.000	639.929	80.000	20.008	100.218	20.100	11.554	0.533
1176.000	644.030	80.001	20.008	100.197	20.100	11.565	0.514
1184.000	648.213	80.000	20.008	100.219	20.103	11.188	0.529
1192.000	652.333	80.000	20.008	100.228	20.109	10.246	0.504
1200.000	656.467	80.000	20.008	100.216	20.107	10.476	0.515
1208.000	660.583	80.001	20.008	100.222	20.104	11.029	0.550
1216.001	664.711	80.001	20.008	100.221	20.104	11.044	0.503
1224.001	668.749	79.999	20.008	100.235	20.110	10.116	0.536
1232.001	672.697	80.002	20.008	100.215	20.107	10.594	0.511
1240.001	676.680	80.001	20.008	100.229	20.104	11.075	0.531
1248.000	680.709	80.000	20.008	100.239	20.105	10.872	0.503
1256.001	684.808	80.001	20.007	100.240	20.101	11.488	0.539
1264.001	688.883	80.000	20.008	100.308	20.112	9.687	0.487
1272.001	692.741	80.001	20.008	100.232	20.107	10.500	0.517
1280.000	696.762	80.000	20.007	100.250	20.108	10.454	0.497
1288.001	700.838	80.000	20.008	100.239	20.105	10.803	0.505
1296.000	704.849	79.999	20.008	100.250	20.105	10.843	0.468
1304.000	708.990	80.000	20.008	100.265	20.108	10.408	0.548
1312.000	713.038	80.001	20.008	100.238	20.103	11.100	0.501
1320.000	717.073	80.000	20.008	100.260	20.105	10.875	0.503
1328.001	720.923	80.000	20.008	100.253	20.104	11.074	0.471
1336.000	724.742	79.999	20.008	100.250	20.105	10.925	0.512
1344.001	728.829	80.000	20.008	100.248	20.103	11.201	0.515
1352.000	732.878	80.001	20.008	100.226	20.102	11.326	0.508
1360.000	737.092	80.001	20.008	100.238	20.102	11.277	0.520
1368.001	741.242	80.001	20.008	100.232	20.108	10.448	0.505
1369.501	742.088	80.000	20.007	100.244	20.106	10.730	0.564

File: mcc_piece_2mg_dyn30_r2.txt
Sample Weight (mg):	1.98
Heating Rate (C/s):	0.5
Combustor Temp (C):	900
N2 Flow Rate (cc/min):	80
O2 Flow Rate (cc/min):	20
Time (s)	Temperature (C)	N2 flow rate (cc/min)	O2 flow rate (cc/min)	Flow Rate (cc/min)	Oxygen (%)	HRR (W/g)	Heating rate (C/s)
0.000	88.052	80.000	20.008	100.152	20.127	12.137	-0.081
8.000	87.472	80.000	20.008	100.244	20.134	10.982	-0.036
16.000	87.117	80.002	20.007	100.224	20.129	11.685	-0.009
24.000	86.966	80.000	20.007	100.251	20.120	13.200	-0.055
32.000	87.115	79.999	20.007	100.281	20.116	13.873	0.033
40.000	87.533	80.000	20.008	100.213	20.116	13.772	0.046
48.000	88.296	80.000	20.007	100.288	20.107	15.208	0.088
56.000	89.218	80.000	20.007	100.362	20.098	16.706	0.153
64.000	90.577	79.999	20.007	100.387	20.090	17.931	0.342
72.000	92.445	79.999	20.008	100.408	20.087	18.508	0.250
80.000	94.798	80.001	20.008	100.444	20.080	19.470	0.295
88.000	97.428	80.001	20.007	100.445	20.077	20.052	0.360
96.001	100.395	80.000	20.008	100.428	20.076	20.233	0.371
104.000	103.769	80.000	20.008	100.401	20.080	19.507	0.479
112.000	107.252	80.000	20.007	100.439	20.080	19.565	0.439
120.001	111.081	80.000	20.007	100.471	20.081	19.345	0.488
128.000	115.068	80.001	20.008	100.452	20.080	19.559	0.514
136.000	119.225	80.001	20.008	100.448	20.080	19.609	0.523
144.000	123.535	80.001	20.007	100.439	20.081	19.387	0.548
152.000	127.973	80.000	20.007	100.420	20.087	18.398	0.553
160.000	132.482	80.000	20.007	100.412	20.089	18.091	0.586
168.000	137.141	80.001	20.008	100.380	20.090	18.019	0.622
176.000	141.674	80.001	20.008	100.357	20.089	18.050	0.540
184.000	146.362	79.999	20.008	100.361	20.092	17.614	0.655
192.000	150.807	80.000	20.008	100.360	20.094	17.236	0.574
200.000	155.324	80.001	20.007	100.359	20.095	17.099	0.507
208.000	159.740	80.000	20.007	100.318	20.096	16.934	0.514
216.000	164.144	80.000	20.007	100.348	20.096	17.020	0.544
224.000	168.532	80.002	20.008	100.341	20.095	17.082	0.561
232.000	172.744	80.001	20.007	100.329	20.091	17.718	0.502
240.000	176.963	79.999	20.007	100.320	20.093	17.417	0.549
248.000	181.020	80.001	20.007	100.317	20.091	17.814	0.505
256.000	185.191	80.001	20.007	100.297	20.092	17.617	0.492
264.000	189.236	80.000	20.007	100.283	20.089	18.165	0.498
272.001	193.310	80.000	20.008	100.277	20.088	18.234	0.498
280.000	197.386	80.001	20.007	100.292	20.087	18.324	0.519
288.000	201.378	80.002	20.007	100.280	20.091	17.829	0.507
296.000	205.413	80.002	20.007	100.269	20.090	17.964	0.526
304.000	209.418	79.999	20.007	100.290	20.092	17.640	0.553
312.000	213.399	80.001	20.007	100.290	20.090	18.003	0.464
320.000	217.467	80.001	20.007	100.288	20.088	18.316	0.515
328.000	221.523	80.000	20.007	100.282	20.088	18.259	0.537
336.000	225.584	80.001	20.008	100.277	20.090	17.867	0.495
344.000	229.596	80.001	20.008	100.273	20.088	18.210	0.463
352.000	233.693	80.001	20.008	100.272	20.087	18.362	0.508
360.000	237.746	80.002	20.008	100.270	20.091	17.847	0.508
368.000	241.829	79.999	20.008	100.264	20.092	17.601	0.498
376.000	246.009	80.001	20.007	100.259	20.087	18.439	0.524
384.000	250.120	80.000	20.007	100.274	20.090	17.973	0.549
392.000	254.079	80.001	20.007	100.267	20.086	18.593	0.546
400.000	258.193	80.000	20.007	100.408	20.087	18.475	0.518
408.001	262.193	80.002	20.009	100.279	20.089	18.121	0.436
416.000	266.176	80.001	20.007	100.280	20.082	19.121	0.479
424.000	270.204	80.001	20.007	100.264	20.071	21.000	0.484
432.000	274.210	80.001	20.008	100.244	20.070	21.031	0.482
440.001	278.204	80.001	20.007	100.250	20.063	22.147	0.491
448.000	282.209	80.001	20.007	100.217	20.056	23.261	0.537
456.000	286.223	80.001	20.007	100.245	20.051	24.040	0.509
464.000	290.237	80.002	20.007	100.283	20.049	24.329	0.550
472.000	294.241	80.001	20.008	100.265	20.042	25.438	0.460
480.000	298.319	79.999	20.008	100.241	20.037	26.278	0.486
488.000	302.372	80.002	20.008	100.270	20.031	27.213	0.540
496.001	306.401	80.000	20.007	100.267	20.022	28.725	0.571
504.000	310.312	79.999	20.008	100.259	20.012	30.246	0.497
512.000	314.341	80.000	20.007	100.262	19.992	33.475	0.490
520.000	318.398	80.000	20.008	100.251	19.962	38.130	0.511
528.000	322.380	80.002	20.008	100.278	19.897	48.453	0.491
536.001	326.390	80.002	20.008	100.211	19.839	57.628	0.525
544.000	330.389	80.001	20.007	100.275	19.724	75.834	0.489
552.001	334.389	80.001	20.008	100.209	19.602	95.005	0.491
560.000	338.414	80.000	20.007	100.247	19.472	115.545	0.500
568.000	342.416	80.001	20.007	100.232	19.366	132.198	0.478
576.000	346.308	80.002	20.008	100.293	19.233	153.313	0.480
584.000	350.349	80.001	20.007	100.274	19.130	169.654	0.557
592.000	354.324	80.001	20.008	100.256	19.043	183.380	0.484
600.000	358.311	80.001	20.007	100.336	18.974	194.395	0.516
608.000	362.205	80.001	20.008	100.290	18.928	201.581	0.552
616.000	366.207	80.001	20.008	100.333	18.886	208.328	0.520
624.000	370.223	80.002	20.007	100.280	18.852	213.550	0.506
632.000	374.097	80.002	20.007	100.326	18.830	217.086	0.460
640.000	378.043	80.002	20.009	100.286	18.969	195.257	0.517
648.000	382.063	79.998	20.008	100.351	19.164	164.325	0.487
656.000	386.204	80.001	20.007	100.427	19.308	141.551	0.539
664.000	390.314	79.999	20.007	100.342	19.424	123.276	0.528
672.000	394.352	80.001	20.007	100.339	19.530	106.490	0.486
680.000	398.381	80.001	20.007	100.296	19.645	88.345	0.480
688.000	402.432	80.001	20.007	100.288	19.769	68.607	0.499
696.000	406.364	80.000	20.007	100.301	19.874	52.095	0.520
704.000	410.451	80.001	20.008	100.283	19.956	39.025	0.500
712.000	414.496	80.000	20.007	100.276	20.014	29.983	0.476
720.000	418.467	79.999	20.007	100.255	20.052	23.998	0.496
728.000	422.452	80.000	20.008	100.239	20.080	19.541	0.509
736.000	426.324	80.001	20.008	100.229	20.097	16.835	0.504
744.000	430.237	80.002	20.008	100.224	20.107	15.271	0.472
752.000	434.082	80.002	20.008	100.248	20.120	13.252	0.505
760.001	437.967	80.002	20.007	100.242	20.118	13.479	0.498
768.000	441.826	80.001	20.007	100.250	20.127	12.024	0.455
776.000	445.750	80.000	20.007	100.276	20.131	11.487	0.541
784.000	449.627	80.002	20.007	100.230	20.126	12.272	0.505
792.001	453.512	80.001	20.008	100.233	20.127	12.113	0.493
800.000	457.482	80.001	20.007	100.259	20.126	12.204	0.503
808.000	461.504	80.001	20.008	100.224	20.129	11.726	0.497
816.000	465.425	80.001	20.007	100.222	20.125	12.334	0.428
824.000	469.530	80.001	20.008	100.212	20.123	12.728	0.497
832.000	473.490	80.000	20.008	100.242	20.127	12.147	0.454
840.000	477.504	80.000	20.007	100.241	20.135	10.867	0.490
848.000	481.271	80.000	20.008	100.269	20.130	11.639	0.500
856.000	485.225	80.001	20.007	100.232	20.124	12.499	0.481
864.000	489.229	80.001	20.007	100.203	20.122	12.878	0.528
872.000	493.094	80.001	20.009	100.183	20.126	12.182	0.456
880.000	497.048	80.000	20.008	100.222	20.126	12.294	0.484
888.000	501.081	80.002	20.008	100.199	20.119	13.406	0.491
896.000	505.043	80.002	20.008	100.224	20.118	13.457	0.499
904.000	508.819	80.001	20.008	100.201	20.120	13.116	0.471
912.000	512.724	80.002	20.008	100.226	20.119	13.405	0.465
920.000	516.715	80.001	20.007	100.249	20.124	12.591	0.516
928.000	520.705	80.002	20.008	100.221	20.119	13.307	0.506
936.000	524.679	80.001	20.007	100.252	20.121	12.996	0.470
944.000	528.649	80.001	20.008	100.242	20.118	13.444	0.509
952.000	532.580	80.001	20.007	100.216	20.112	14.385	0.487
960.000	536.554	80.002	20.008	100.210	20.117	13.688	0.504
968.000	540.556	80.003	20.008	100.224	20.116	13.759	0.486
976.001	544.564	80.000	20.008	100.221	20.116	13.842	0.495
984.000	548.542	80.000	20.008	100.236	20.116	13.848	0.520
992.000	552.458	80.001	20.008	100.246	20.113	14.233	0.505
1000.000	556.496	80.002	20.008	100.243	20.114	14.141	0.491
1008.000	560.482	80.001	20.007	100.244	20.116	13.888	0.488
1016.000	564.578	80.002	20.008	100.251	20.114	14.138	0.508
1024.000	568.610	80.001	20.008	100.242	20.109	14.857	0.497
1032.000	572.665	80.002	20.007	100.245	20.110	14.762	0.508
1040.000	576.611	80.002	20.007	100.239	20.110	14.681	0.522
1048.000	580.626	80.001	20.007	100.256	20.110	14.692	0.511
1056.001	584.639	80.001	20.007	100.253	20.109	14.860	0.547
1064.001	588.598	80.002	20.008	100.253	20.109	14.992	0.481
1072.000	592.563	80.001	20.008	100.251	20.109	14.943	0.488
1080.000	596.568	80.001	20.008	100.263	20.110	14.819	0.517
1088.001	600.555	80.001	20.007	100.243	20.107	15.272	0.493
1096.000	604.531	80.002	20.008	100.224	20.102	16.039	0.513
1104.000	608.479	80.002	20.008	100.252	20.108	15.075	0.501
1112.000	612.389	80.002	20.008	100.225	20.102	15.975	0.476
1120.000	616.414	80.001	20.007	100.257	20.101	16.124	0.488
1128.000	620.378	80.002	20.008	100.257	20.102	16.034	0.487
1136.000	624.394	80.001	20.007	100.257	20.100	16.324	0.524
1144.001	628.511	80.001	20.008	100.244	20.103	15.812	0.489
1152.001	632.588	80.001	20.008	100.251	20.106	15.463	0.482
1160.000	636.678	80.001	20.008	100.225	20.104	15.757	0.543
1168.001	640.697	80.001	20.008	100.216	20.102	16.073	0.507
1176.000	644.675	80.001	20.008	100.216	20.102	16.004	0.478
1184.000	648.723	80.002	20.008	100.226	20.100	16.321	0.530
1192.000	652.727	80.002	20.007	100.269	20.104	15.657	0.499
1200.001	656.797	80.002	20.007	100.241	20.107	15.241	0.507
1208.000	660.879	80.001	20.007	100.237	20.106	15.426	0.553
1216.000	664.897	80.002	20.008	100.227	20.102	16.006	0.518
1224.000	668.885	80.002	20.007	100.230	20.100	16.386	0.497
1232.000	672.913	80.002	20.008	100.231	20.103	15.924	0.526
1240.000	676.917	80.002	20.008	100.235	20.099	16.535	0.543
1248.000	680.937	80.000	20.008	100.212	20.097	16.870	0.485
1256.000	684.800	80.002	20.008	100.294	20.103	15.865	0.446
1264.000	688.638	80.002	20.008	100.262	20.098	16.592	0.486
1272.001	692.650	80.001	20.008	100.281	20.102	16.018	0.561
1280.000	696.613	80.002	20.007	100.256	20.096	16.901	0.525
1288.000	700.608	80.002	20.007	100.259	20.099	16.538	0.463
1296.000	704.647	80.001	20.007	100.257	20.098	16.612	0.518
1304.001	708.711	80.003	20.007	100.252	20.095	17.095	0.532
1312.001	712.919	80.002	20.008	100.255	20.093	17.514	0.537
1320.000	716.923	80.003	20.008	100.265	20.095	17.120	0.479
1328.000	721.015	80.002	20.007	100.255	20.093	17.495	0.481
1336.001	725.146	80.000	20.008	100.238	20.097	16.852	0.534
1344.001	729.244	80.002	20.007	100.222	20.090	17.982	0.504
1352.001	733.347	80.003	20.008	100.261	20.092	17.617	0.550
1360.000	737.293	80.002	20.008	100.234	20.093	17.451	0.505
1368.000	741.293	80.001	20.007	100.258	20.093	17.496	0.570
1370.500	742.481	80.002	20.007	100.257	20.087	18.475	0.480