Folder: Pyrolysis_BESKID/Experiments/TUBS/mcc

Note: README.md
# Pyrolysis_BESKID
Preparation of pyrolysis modelling publication.


## Python Scripting

The Python scripts are built on Python version: 3.13.3 (tags/v3.13.3:6280bb5, Apr  8 2025, 14:47:33) [MSC v.1943 64 bit (AMD64)]

Use the `requirements.txt` to build a virtual Python environment. It is located in `GeneralInformation\Python_venv`.

### How to set up a virtual Python environment on Windows

This description assumes you intent to set up a virtual Python environment on Windows, using Powershell. Adjust the paths according to your setup.

From a clean [Python installation](https://www.python.org/downloads/), create a clean virtual environment. This is done by typing the following command into the Powershell terminal: ` C:\Programs\Python\Python313\python.exe -m venv name_of_your_environment`. You can give it a name by changing `name_of_your_environment` to what ever name you like. This will create a directory of the chosen name, containing the necessary files of the environment.

In Powershell, the process needs to be given permission to run the environment, like so:
`Set-ExecutionPolicy Unrestricted -Scope Process`
Set the exception for this process by hitting "Y" (yes). This step needs to be repeated every time you want to run the environment from your console, but is not necessary if you use it just as Jupyter kernel (see below).

Now, you can start the environment. For this, a specific file in the directory needs to be called in Powershell: `C:\Venvs\name_of_your_environment\Scripts\activate`.

The `requirements.txt` can now be used to install specific packages recursively: `pip install -r C:\Pyrolysis_BESKID\GeneralInformation\Python_venv\requirements.txt`.

You can use this virtual environment as kernel for your Jupyter notebooks. It can be installed as follows: `python -m ipykernel install --user --name=name_of_your_environment --display-name "Python (name_of_your_environment)"`.

File: mcc_piece_1mg_dyn30_r2.txt
Sample Weight (mg):	1.02
Heating Rate (C/s):	0.5
Combustor Temp (C):	900
N2 Flow Rate (cc/min):	80
O2 Flow Rate (cc/min):	20
Time (s)	Temperature (C)	N2 flow rate (cc/min)	O2 flow rate (cc/min)	Flow Rate (cc/min)	Oxygen (%)	HRR (W/g)	Heating rate (C/s)
0.000	87.541	80.000	20.008	100.275	20.084	10.098	-0.055
8.000	87.128	80.001	20.008	100.302	20.086	9.748	-0.055
16.000	86.932	80.000	20.007	100.261	20.076	12.750	-0.023
24.000	87.074	80.001	20.008	100.269	20.073	13.721	0.044
32.000	87.407	80.001	20.008	100.275	20.071	14.202	0.036
40.001	88.001	80.001	20.007	100.317	20.065	16.036	0.114
48.000	88.799	80.002	20.008	100.334	20.057	18.676	0.139
56.000	89.948	80.001	20.008	100.357	20.046	21.953	0.181
64.001	91.323	79.999	20.008	100.460	20.036	24.879	0.188
72.000	93.274	80.001	20.008	100.501	20.029	27.120	0.265
80.001	95.587	80.002	20.007	100.491	20.028	27.496	0.241
88.000	98.150	80.000	20.008	100.521	20.024	28.552	0.302
96.001	101.342	79.999	20.008	100.544	20.017	30.918	0.317
104.000	104.822	79.999	20.007	100.470	20.020	29.968	0.413
112.000	108.611	80.001	20.008	100.582	20.021	29.582	0.521
120.000	112.793	80.001	20.007	100.573	20.020	29.865	0.529
128.000	117.207	80.001	20.008	100.540	20.018	30.412	0.562
136.001	121.854	80.000	20.008	100.524	20.026	28.120	0.609
144.000	126.559	80.001	20.008	100.491	20.025	28.471	0.568
152.000	131.426	80.002	20.007	100.487	20.025	28.210	0.591
160.000	136.284	80.001	20.008	100.456	20.027	27.615	0.593
168.001	141.056	80.001	20.008	100.421	20.030	26.867	0.626
176.000	145.912	80.000	20.008	100.423	20.032	26.257	0.618
184.000	150.669	80.002	20.008	100.418	20.036	24.985	0.600
192.000	155.138	80.003	20.008	100.416	20.036	25.118	0.366
200.000	160.079	80.001	20.008	100.412	20.034	25.629	0.580
208.000	164.611	80.001	20.007	100.399	20.036	24.913	0.576
216.000	169.050	80.000	20.008	100.347	20.038	24.243	0.514
224.000	173.490	79.999	20.008	100.360	20.037	24.567	0.545
232.000	177.843	79.999	20.008	100.365	20.042	23.049	0.532
240.000	181.976	79.999	20.007	100.331	20.044	22.591	0.507
248.000	186.173	80.001	20.008	100.373	20.039	24.073	0.502
256.000	190.352	80.002	20.009	100.330	20.043	22.867	0.535
264.000	194.331	80.001	20.007	100.332	20.041	23.440	0.445
272.000	198.377	80.001	20.007	100.347	20.045	22.218	0.475
280.000	202.320	80.002	20.008	100.326	20.039	24.109	0.477
288.000	206.415	80.001	20.008	100.330	20.037	24.691	0.515
296.001	210.269	80.000	20.008	100.322	20.040	23.824	0.461
304.000	214.260	80.001	20.007	100.348	20.039	24.031	0.498
312.000	218.233	80.001	20.007	100.349	20.039	24.021	0.451
320.000	222.297	80.000	20.008	100.328	20.037	24.599	0.517
328.000	226.351	80.000	20.007	100.325	20.038	24.445	0.521
336.000	230.362	80.001	20.007	100.338	20.035	25.152	0.489
344.000	234.457	80.002	20.008	100.343	20.039	23.973	0.513
352.000	238.437	80.000	20.007	100.332	20.041	23.467	0.474
360.000	242.709	80.000	20.007	100.320	20.040	23.683	0.563
368.000	246.844	80.000	20.008	100.330	20.038	24.371	0.529
376.000	250.853	80.001	20.008	100.316	20.037	24.634	0.462
384.001	254.907	80.001	20.009	100.303	20.038	24.429	0.521
392.000	259.017	80.001	20.008	100.306	20.037	24.624	0.539
400.000	263.103	80.000	20.008	100.296	20.038	24.228	0.532
408.000	267.190	80.000	20.008	100.280	20.034	25.430	0.486
416.000	271.302	80.002	20.008	100.286	20.033	25.769	0.522
424.000	275.279	80.000	20.008	100.288	20.037	24.732	0.475
432.000	279.314	80.001	20.007	100.287	20.029	26.956	0.486
440.000	283.387	80.001	20.007	100.295	20.029	26.962	0.532
448.000	287.391	80.001	20.008	100.276	20.025	28.245	0.502
456.000	291.425	80.001	20.008	100.272	20.020	29.905	0.510
464.000	295.425	80.001	20.008	100.292	20.019	30.300	0.498
472.000	299.422	80.001	20.008	100.295	20.013	31.911	0.470
480.000	303.524	80.001	20.008	100.281	20.014	31.751	0.535
488.000	307.433	80.001	20.008	100.257	20.008	33.388	0.474
496.000	311.507	80.001	20.006	100.291	20.001	35.514	0.482
504.000	315.485	80.000	20.008	100.254	19.993	38.012	0.510
512.000	319.349	80.001	20.008	100.268	19.983	41.310	0.458
520.000	323.398	80.001	20.008	100.245	19.962	47.787	0.523
528.000	327.348	80.002	20.007	100.236	19.937	55.314	0.512
536.000	331.404	80.001	20.008	100.238	19.900	66.702	0.510
544.000	335.361	79.999	20.009	100.280	19.840	84.961	0.446
552.000	339.332	80.001	20.008	100.273	19.752	112.096	0.458
560.000	343.362	80.000	20.007	100.287	19.682	133.571	0.464
568.000	347.364	80.001	20.008	100.296	19.594	160.467	0.479
576.000	351.414	80.001	20.008	100.286	19.511	186.106	0.472
584.000	355.403	80.000	20.008	100.303	19.461	201.379	0.503
592.000	359.442	79.999	20.008	100.307	19.427	211.878	0.515
600.000	363.547	80.000	20.008	100.299	19.402	219.565	0.518
608.001	367.502	80.001	20.008	100.303	19.386	224.291	0.497
616.000	371.464	80.001	20.009	100.303	19.387	224.009	0.480
624.000	375.394	80.000	20.009	100.288	19.422	213.232	0.439
632.000	379.400	80.000	20.008	100.324	19.489	192.716	0.485
640.000	383.466	80.001	20.008	100.272	19.577	165.887	0.497
648.000	387.514	80.001	20.008	100.306	19.639	146.683	0.485
656.000	391.534	80.002	20.008	100.294	19.698	128.682	0.494
664.000	395.496	80.000	20.008	100.277	19.764	108.465	0.482
672.000	399.530	80.001	20.008	100.253	19.830	88.065	0.502
680.000	403.446	80.001	20.008	100.254	19.891	69.376	0.431
688.000	407.351	80.002	20.008	100.233	19.944	53.199	0.510
696.000	411.264	80.000	20.007	100.232	19.987	39.910	0.450
704.000	415.234	80.000	20.008	100.224	20.018	30.313	0.471
712.000	419.285	80.001	20.008	100.230	20.035	25.314	0.566
720.000	423.240	80.000	20.008	100.216	20.046	21.898	0.522
728.000	427.116	80.001	20.008	100.248	20.052	19.913	0.470
736.000	431.070	80.001	20.008	100.260	20.061	17.317	0.498
744.000	434.905	80.000	20.008	100.259	20.062	17.051	0.461
752.000	438.893	80.002	20.008	100.240	20.064	16.216	0.493
760.000	442.815	80.000	20.008	100.230	20.062	16.942	0.477
768.000	446.785	80.001	20.008	100.221	20.065	15.897	0.444
776.000	450.739	80.001	20.008	100.216	20.066	15.787	0.499
784.000	454.738	80.001	20.008	100.203	20.066	15.614	0.491
792.000	458.734	80.001	20.008	100.214	20.067	15.510	0.514
800.000	462.759	80.001	20.008	100.231	20.068	15.024	0.493
808.000	466.660	80.000	20.008	100.225	20.067	15.267	0.516
816.000	470.706	80.001	20.009	100.234	20.066	15.659	0.511
824.000	474.611	80.000	20.008	100.222	20.070	14.569	0.451
832.000	478.584	80.001	20.008	100.241	20.069	14.777	0.520
840.000	482.509	80.001	20.008	100.234	20.071	14.314	0.484
848.000	486.427	80.001	20.008	100.211	20.068	15.239	0.482
856.000	490.427	80.000	20.008	100.225	20.071	14.153	0.501
864.000	494.395	80.000	20.008	100.231	20.071	14.304	0.482
872.000	498.400	79.999	20.008	100.237	20.067	15.420	0.463
880.000	502.478	80.001	20.007	100.190	20.068	15.108	0.511
888.000	506.446	80.002	20.007	100.232	20.068	15.030	0.484
896.000	510.446	80.000	20.007	100.223	20.070	14.466	0.529
904.000	514.384	80.001	20.008	100.210	20.067	15.333	0.520
912.000	518.397	80.002	20.008	100.237	20.068	15.039	0.512
920.000	522.270	80.002	20.008	100.215	20.074	13.334	0.478
928.000	526.017	80.002	20.008	100.270	20.079	11.667	0.449
936.001	529.922	80.001	20.008	100.276	20.078	11.960	0.505
944.000	533.773	80.000	20.008	100.249	20.081	11.255	0.508
952.000	537.670	80.002	20.008	100.273	20.082	10.677	0.507
960.000	541.585	80.001	20.008	100.264	20.077	12.317	0.479
968.000	545.523	80.001	20.008	100.228	20.067	15.360	0.483
976.000	549.575	80.001	20.008	100.113	20.062	16.836	0.527
984.000	553.623	80.000	20.009	100.256	20.061	17.229	0.508
992.000	557.823	80.001	20.010	100.215	20.070	14.519	0.525
1000.000	561.957	80.000	20.008	100.208	20.065	16.057	0.507
1008.000	566.107	80.002	20.008	100.186	20.068	15.054	0.515
1016.000	570.226	80.001	20.008	100.200	20.061	17.289	0.530
1024.000	574.273	80.001	20.009	100.225	20.062	16.805	0.485
1032.000	578.240	80.002	20.008	100.231	20.063	16.662	0.486
1040.000	582.219	80.000	20.008	100.238	20.061	17.266	0.514
1048.000	586.244	80.001	20.008	100.244	20.058	18.225	0.480
1056.000	590.290	80.001	20.008	100.223	20.056	18.817	0.506
1064.000	594.296	80.000	20.008	100.210	20.054	19.505	0.502
1072.001	598.348	80.001	20.007	100.208	20.054	19.557	0.534
1080.000	602.325	80.000	20.008	100.249	20.055	19.078	0.496
1088.000	606.340	80.000	20.008	100.202	20.055	19.227	0.512
1096.000	610.369	80.001	20.008	100.224	20.048	21.304	0.471
1104.000	614.346	80.003	20.010	100.285	20.051	20.263	0.505
1112.001	618.330	80.000	20.008	100.332	20.055	19.063	0.487
1120.001	622.334	80.000	20.008	100.216	20.050	20.724	0.478
1128.000	626.283	79.999	20.008	100.254	20.047	21.491	0.502
1136.001	630.255	80.001	20.008	100.239	20.052	19.930	0.471
1144.000	634.254	80.000	20.008	100.276	20.056	18.901	0.478
1152.000	638.134	80.000	20.008	100.282	20.055	18.989	0.498
1160.000	642.033	80.001	20.008	100.262	20.053	19.806	0.488
1168.001	645.999	80.001	20.007	100.275	20.056	18.871	0.477
1176.000	650.021	80.001	20.008	100.245	20.055	19.159	0.477
1184.000	654.065	80.001	20.008	100.232	20.052	20.070	0.505
1192.001	658.256	80.000	20.007	100.238	20.054	19.360	0.516
1200.001	662.333	80.000	20.008	100.260	20.049	21.010	0.560
1208.000	666.431	80.001	20.007	100.237	20.047	21.587	0.512
1216.000	670.466	80.000	20.008	100.254	20.049	20.815	0.493
1224.001	674.483	80.001	20.007	100.268	20.047	21.436	0.480
1232.001	678.411	80.000	20.007	100.246	20.050	20.541	0.485
1240.001	682.275	79.999	20.007	100.254	20.049	20.977	0.469
1248.000	686.303	80.002	20.007	100.258	20.050	20.621	0.487
1256.000	690.282	80.001	20.007	100.253	20.050	20.687	0.508
1264.000	694.270	80.000	20.007	100.243	20.049	21.068	0.473
1272.001	698.405	80.000	20.007	100.252	20.047	21.416	0.510
1280.000	702.489	80.001	20.008	100.262	20.047	21.704	0.503
1288.000	706.538	79.999	20.008	100.250	20.052	19.888	0.523
1296.001	710.682	79.999	20.008	100.240	20.045	22.164	0.487
1304.000	714.709	80.000	20.008	100.269	20.047	21.631	0.565
1312.001	718.605	79.999	20.008	100.247	20.046	21.769	0.510
1320.000	722.587	80.000	20.007	100.263	20.045	22.110	0.502
1328.000	726.671	80.001	20.007	100.286	20.046	21.758	0.533
1336.000	730.700	80.001	20.008	100.280	20.051	20.355	0.498
1344.000	734.740	80.000	20.008	100.283	20.049	20.798	0.517
1352.001	738.827	80.001	20.008	100.250	20.046	21.930	0.482
1359.000	742.393	80.000	20.008	100.253	20.044	22.337	0.500

File: mcc_piece_1mg_dyn30_r3.txt
Sample Weight (mg):	1.01
Heating Rate (C/s):	0.5
Combustor Temp (C):	900
N2 Flow Rate (cc/min):	80
O2 Flow Rate (cc/min):	20
Time (s)	Temperature (C)	N2 flow rate (cc/min)	O2 flow rate (cc/min)	Flow Rate (cc/min)	Oxygen (%)	HRR (W/g)	Heating rate (C/s)
0.000	90.472	79.998	20.008	99.709	20.134	-4.326	-0.071
7.999	89.743	80.002	20.009	99.974	20.091	9.165	-0.097
15.999	88.994	80.000	20.009	100.251	20.058	19.218	-0.100
23.999	88.628	80.001	20.009	100.272	20.038	25.550	-0.022
32.000	88.664	79.999	20.007	100.408	20.012	33.455	0.018
39.999	89.309	80.000	20.009	100.472	20.001	37.047	0.140
48.000	90.578	80.001	20.009	100.498	19.995	38.816	0.211
55.999	92.363	80.001	20.009	100.483	19.998	37.898	0.233
64.000	94.509	80.000	20.010	100.469	19.997	38.366	0.261
71.999	97.034	80.000	20.009	100.501	19.995	38.993	0.386
80.000	100.080	80.000	20.009	100.503	19.994	39.327	0.391
87.999	103.444	80.000	20.009	100.504	19.993	39.576	0.470
95.999	107.143	80.002	20.009	100.492	19.990	40.477	0.469
104.000	111.168	80.002	20.009	100.482	19.988	41.097	0.510
112.000	115.502	79.999	20.008	100.513	19.994	39.092	0.518
119.999	119.865	80.001	20.009	100.514	19.998	37.970	0.775
128.000	124.602	80.001	20.009	100.472	20.000	37.407	0.623
136.000	129.103	80.001	20.008	100.463	20.002	36.609	0.505
144.000	133.969	80.001	20.009	100.467	20.010	34.150	0.574
152.000	138.585	80.001	20.009	100.365	20.014	33.069	0.558
160.000	143.176	80.000	20.008	100.383	20.013	33.386	0.597
168.000	147.655	80.000	20.009	100.371	20.013	33.150	0.559
176.000	151.987	80.001	20.008	100.360	20.013	33.368	0.563
184.000	156.340	80.000	20.008	100.393	20.021	30.876	0.510
192.000	160.526	80.000	20.009	100.377	20.022	30.312	0.497
200.000	164.674	80.001	20.008	100.357	20.015	32.539	0.548
208.000	168.824	79.999	20.008	100.359	20.015	32.466	0.537
216.000	172.776	80.002	20.009	100.356	20.013	33.183	0.501
224.000	176.893	80.001	20.008	100.340	20.013	33.179	0.491
232.000	180.930	80.000	20.009	100.367	20.012	33.685	0.511
240.000	184.870	80.000	20.009	100.358	20.014	32.992	0.481
248.000	188.851	79.999	20.008	100.345	20.013	33.161	0.480
256.000	192.858	80.001	20.008	100.359	20.016	32.321	0.476
264.000	196.909	79.999	20.008	100.345	20.013	33.094	0.509
272.000	201.008	80.000	20.008	100.357	20.014	33.012	0.561
280.000	205.067	80.000	20.008	100.354	20.012	33.578	0.493
288.000	209.154	80.000	20.009	100.335	20.010	34.187	0.507
296.000	213.273	80.000	20.009	100.303	20.010	34.315	0.541
304.000	217.434	80.000	20.009	100.328	20.009	34.604	0.548
312.000	221.587	80.000	20.009	100.319	20.013	33.184	0.542
320.000	225.672	79.999	20.009	100.317	20.007	34.951	0.505
328.000	229.806	80.001	20.008	100.322	20.009	34.383	0.528
336.000	233.883	80.000	20.008	100.322	20.008	34.724	0.533
344.000	237.966	80.001	20.008	100.306	20.008	34.770	0.503
352.000	242.094	80.001	20.008	100.300	20.012	33.684	0.506
360.000	246.197	80.001	20.008	100.323	20.010	34.120	0.509
368.000	250.224	80.002	20.009	100.306	20.011	33.764	0.471
376.000	254.275	80.000	20.009	100.315	20.012	33.578	0.516
384.000	258.297	80.001	20.009	100.306	20.008	34.637	0.495
392.000	262.343	80.001	20.008	100.317	20.008	34.618	0.504
400.000	266.399	80.000	20.009	100.313	20.010	34.204	0.534
408.000	270.480	79.999	20.009	100.315	20.011	33.694	0.544
416.000	274.502	79.999	20.009	100.302	20.003	36.237	0.509
424.000	278.563	80.000	20.008	100.302	20.000	37.333	0.476
432.000	282.522	80.000	20.009	100.307	19.999	37.527	0.509
440.000	286.552	80.000	20.009	100.304	19.997	38.165	0.490
448.000	290.586	80.000	20.009	100.298	19.993	39.550	0.522
456.000	294.560	79.999	20.008	100.299	19.992	39.579	0.508
464.000	298.615	80.000	20.008	100.297	19.991	40.031	0.519
472.000	302.652	80.002	20.009	100.292	19.986	41.518	0.495
480.000	306.619	80.000	20.009	100.298	19.983	42.653	0.467
488.000	310.612	80.000	20.008	100.303	19.977	44.336	0.476
496.000	314.627	80.001	20.008	100.299	19.963	48.575	0.511
504.000	318.705	79.999	20.009	100.297	19.941	55.434	0.499
512.000	322.687	80.001	20.009	100.272	19.919	62.479	0.537
520.000	326.658	80.000	20.009	100.286	19.886	72.691	0.532
528.000	330.630	80.000	20.008	100.314	19.845	85.385	0.465
536.000	334.576	80.001	20.009	100.330	19.798	99.840	0.510
544.000	338.515	80.000	20.009	100.327	19.736	118.964	0.471
552.000	342.547	80.000	20.009	100.338	19.683	135.543	0.459
560.000	346.536	80.000	20.008	100.321	19.620	155.122	0.467
568.000	350.562	80.001	20.007	100.306	19.537	180.798	0.491
576.000	354.540	80.001	20.008	100.314	19.466	202.879	0.523
584.000	358.513	80.001	20.008	100.350	19.413	219.194	0.465
592.000	362.512	80.000	20.008	100.346	19.379	229.710	0.498
600.000	366.481	80.001	20.007	100.342	19.351	238.445	0.506
608.000	370.511	79.999	20.007	100.335	19.361	235.391	0.496
616.000	374.480	80.000	20.007	100.334	19.376	230.671	0.467
624.000	378.404	79.999	20.007	100.298	19.458	205.347	0.474
632.000	382.464	80.000	20.008	100.317	19.562	172.837	0.522
640.000	386.520	80.000	20.008	100.314	19.632	151.422	0.503
648.000	390.536	80.001	20.008	100.279	19.695	131.763	0.487
656.000	394.544	80.000	20.008	100.296	19.751	114.484	0.480
664.000	398.585	80.000	20.008	100.287	19.822	92.338	0.510
672.000	402.573	80.001	20.008	100.316	19.886	72.540	0.479
680.000	406.598	80.000	20.009	100.304	19.935	57.246	0.504
688.000	410.592	80.001	20.009	100.284	19.970	46.439	0.484
696.000	414.488	80.001	20.009	100.297	19.997	38.187	0.464
704.000	418.490	80.000	20.008	100.283	20.015	32.728	0.514
712.000	422.450	80.000	20.008	100.271	20.022	30.526	0.491
720.000	426.472	80.001	20.008	100.298	20.029	28.225	0.505
728.000	430.493	80.000	20.008	100.283	20.036	26.070	0.476
736.000	434.496	80.000	20.009	100.261	20.036	25.955	0.517
744.000	438.490	80.001	20.009	100.272	20.039	25.186	0.514
752.000	442.409	80.001	20.008	100.263	20.042	24.296	0.437
760.000	446.319	80.001	20.009	100.263	20.039	25.017	0.542
768.000	450.238	80.000	20.009	100.253	20.041	24.515	0.494
776.000	454.126	80.000	20.009	100.282	20.039	25.064	0.478
784.000	458.135	79.999	20.009	100.264	20.041	24.415	0.498
792.000	462.097	79.999	20.008	100.261	20.045	23.231	0.460
800.000	466.096	80.001	20.009	100.292	20.047	22.741	0.463
808.000	470.171	80.001	20.009	100.284	20.044	23.645	0.470
816.000	474.176	79.999	20.009	100.261	20.048	22.460	0.535
824.000	478.135	80.000	20.009	100.254	20.045	23.285	0.485
832.000	482.081	79.999	20.009	100.252	20.042	24.086	0.481
840.000	486.042	80.000	20.009	100.253	20.043	23.837	0.492
848.000	489.866	80.000	20.009	100.270	20.039	25.021	0.474
856.000	493.777	79.999	20.009	100.252	20.041	24.663	0.466
864.000	497.729	80.000	20.009	100.263	20.042	24.136	0.495
872.000	501.725	80.000	20.009	100.258	20.042	24.167	0.497
880.000	505.745	80.002	20.008	100.247	20.047	22.623	0.524
888.000	509.720	80.000	20.009	100.252	20.047	22.606	0.543
896.000	513.666	80.001	20.010	100.220	20.044	23.640	0.517
904.000	517.692	80.001	20.008	100.253	20.039	25.317	0.508
912.000	521.691	80.000	20.008	100.243	20.046	22.882	0.497
920.000	525.629	80.001	20.009	100.263	20.041	24.541	0.444
928.000	529.683	80.002	20.007	100.264	20.039	25.029	0.512
936.000	533.574	79.999	20.009	100.252	20.039	25.130	0.437
944.000	537.447	80.001	20.008	100.283	20.043	23.940	0.460
952.000	541.358	80.000	20.009	100.257	20.040	24.975	0.478
960.000	545.275	79.999	20.008	100.296	20.045	23.403	0.507
968.000	549.241	79.999	20.009	100.283	20.041	24.487	0.527
976.000	553.209	80.000	20.009	100.300	20.044	23.459	0.518
984.000	557.210	79.999	20.009	100.253	20.039	25.091	0.493
992.000	561.278	80.000	20.009	100.274	20.042	24.155	0.500
1000.000	565.332	80.000	20.008	100.276	20.038	25.489	0.525
1008.000	569.392	80.000	20.009	100.250	20.032	27.175	0.538
1016.000	573.355	79.999	20.008	100.244	20.029	28.319	0.458
1024.000	577.435	80.000	20.009	100.234	20.029	28.251	0.505
1031.999	581.546	80.000	20.009	100.234	20.026	29.241	0.569
1040.000	585.653	80.000	20.009	100.248	20.029	28.222	0.493
1047.999	589.584	79.999	20.008	100.248	20.028	28.651	0.441
1055.999	593.578	80.000	20.009	100.261	20.031	27.598	0.477
1063.999	597.523	80.000	20.009	100.274	20.033	26.986	0.468
1071.999	601.532	80.001	20.009	100.258	20.027	28.983	0.516
1079.999	605.532	80.002	20.009	100.266	20.026	29.230	0.446
1088.000	609.418	80.001	20.008	100.253	20.023	29.963	0.484
1096.001	613.294	80.000	20.008	100.252	20.027	28.927	0.483
1103.999	617.280	79.999	20.009	100.262	20.026	29.305	0.512
1111.999	621.329	80.000	20.009	100.249	20.025	29.557	0.470
1119.999	625.355	80.000	20.009	100.268	20.025	29.372	0.513
1127.999	629.336	80.001	20.008	100.284	20.029	28.398	0.471
1135.999	633.343	80.000	20.008	100.244	20.030	28.078	0.502
1144.000	637.432	79.999	20.008	100.246	20.027	28.757	0.574
1151.999	641.445	79.999	20.008	100.249	20.029	28.202	0.519
1160.000	645.485	80.001	20.008	100.254	20.028	28.568	0.498
1168.000	649.586	79.999	20.008	100.236	20.031	27.781	0.508
1176.000	653.584	80.000	20.009	100.260	20.029	28.202	0.505
1183.999	657.643	79.999	20.009	100.266	20.033	26.953	0.568
1192.000	661.551	79.999	20.008	100.271	20.029	28.317	0.475
1199.999	665.504	80.001	20.008	100.255	20.030	27.851	0.520
1208.000	669.524	80.000	20.009	100.241	20.031	27.606	0.512
1215.999	673.497	80.000	20.009	100.235	20.028	28.490	0.522
1223.999	677.570	79.999	20.008	100.269	20.031	27.486	0.513
1231.999	681.536	80.000	20.009	100.239	20.032	27.242	0.481
1239.999	685.531	80.000	20.009	100.269	20.031	27.679	0.478
1247.999	689.552	80.001	20.008	100.264	20.028	28.419	0.504
1255.999	693.717	80.000	20.008	100.280	20.027	28.758	0.515
1263.999	697.595	79.998	20.008	100.242	20.029	28.191	0.471
1271.999	701.503	79.999	20.008	100.236	20.027	28.957	0.470
1280.000	705.479	80.000	20.008	100.235	20.025	29.470	0.516
1287.999	709.461	80.000	20.008	100.247	20.027	28.953	0.527
1296.000	713.515	80.000	20.009	100.253	20.024	29.768	0.527
1303.999	717.664	80.000	20.008	100.256	20.021	30.779	0.548
1311.999	721.701	80.001	20.008	100.243	20.025	29.408	0.497
1319.999	725.865	80.000	20.008	100.259	20.025	29.601	0.505
1327.999	729.984	80.000	20.008	100.247	20.023	29.957	0.447
1335.999	734.154	79.999	20.009	100.248	20.022	30.509	0.500
1343.999	738.432	80.000	20.008	100.279	20.023	29.998	0.517
1351.499	742.355	80.001	20.008	100.251	20.025	29.390	0.541