Folder: Pyrolysis_BESKID/Experiments/TUBS/mcc (part 4)

File: mcc_piece_3mg_dyn30_r3.txt
Sample Weight (mg):	3.01
Heating Rate (C/s):	0.5
Combustor Temp (C):	900
N2 Flow Rate (cc/min):	80
O2 Flow Rate (cc/min):	20
Time (s)	Temperature (C)	N2 flow rate (cc/min)	O2 flow rate (cc/min)	Flow Rate (cc/min)	Oxygen (%)	HRR (W/g)	Heating rate (C/s)
0.000	89.684	80.002	20.008	100.006	20.180	2.366	-0.101
8.000	89.030	80.001	20.008	100.481	20.130	7.519	-0.029
16.000	88.584	79.999	20.008	100.490	20.123	8.311	-0.020
24.000	88.399	80.000	20.008	100.548	20.117	8.940	-0.012
32.000	88.537	80.001	20.008	100.611	20.101	10.619	0.015
40.000	89.040	80.001	20.008	100.664	20.099	10.804	0.108
48.000	90.064	80.002	20.008	100.648	20.103	10.365	0.125
56.001	91.506	80.001	20.008	100.620	20.101	10.634	0.198
64.000	93.116	80.000	20.008	100.646	20.093	11.403	0.203
72.001	95.095	80.001	20.008	100.680	20.091	11.671	0.268
80.000	97.497	80.000	20.008	100.668	20.086	12.174	0.319
88.000	100.154	80.001	20.008	100.708	20.086	12.211	0.331
96.001	103.232	80.001	20.008	100.703	20.086	12.148	0.399
104.000	106.671	80.001	20.008	100.699	20.083	12.482	0.459
112.000	110.261	80.002	20.008	100.713	20.086	12.181	0.463
120.000	114.127	80.001	20.008	100.707	20.082	12.547	0.466
128.000	118.205	80.002	20.008	100.712	20.088	12.005	0.529
136.000	122.464	80.001	20.008	100.705	20.093	11.455	0.597
144.000	126.906	80.002	20.008	100.677	20.094	11.351	0.613
152.000	131.394	80.000	20.008	100.665	20.098	10.933	0.567
160.000	135.966	80.001	20.008	100.649	20.102	10.507	0.554
168.000	140.537	80.001	20.008	100.687	20.101	10.626	0.563
176.000	145.106	80.000	20.008	100.648	20.106	10.090	0.552
184.000	149.668	80.001	20.008	100.639	20.104	10.304	0.531
192.000	154.247	80.002	20.008	100.623	20.113	9.292	0.576
200.000	158.753	80.001	20.008	100.615	20.113	9.328	0.561
208.000	163.268	80.000	20.008	100.593	20.113	9.306	0.588
216.000	167.615	80.000	20.008	100.572	20.109	9.801	0.565
224.000	171.880	80.002	20.008	100.609	20.109	9.723	0.560
232.000	176.105	79.999	20.008	100.575	20.105	10.181	0.527
240.000	180.331	80.000	20.008	100.580	20.103	10.397	0.498
248.000	184.410	80.001	20.008	100.547	20.098	10.920	0.513
256.000	188.511	80.000	20.008	100.553	20.098	10.938	0.518
264.000	192.519	80.002	20.007	100.536	20.100	10.664	0.475
272.000	196.622	80.001	20.008	100.539	20.099	10.793	0.529
280.000	200.695	80.000	20.008	100.570	20.102	10.524	0.525
288.000	204.697	80.001	20.008	100.547	20.099	10.759	0.491
296.000	208.790	80.002	20.008	100.560	20.099	10.793	0.506
304.000	212.833	80.002	20.008	100.553	20.103	10.404	0.511
312.000	216.858	80.001	20.007	100.527	20.102	10.529	0.486
320.000	220.988	80.001	20.008	100.538	20.105	10.158	0.498
328.000	225.057	80.001	20.008	100.562	20.110	9.637	0.500
336.000	229.066	80.002	20.008	100.550	20.109	9.789	0.502
344.000	233.122	80.001	20.007	100.534	20.097	10.958	0.522
352.000	237.132	80.001	20.008	100.531	20.102	10.513	0.494
360.000	241.126	80.001	20.007	100.534	20.103	10.422	0.496
368.000	245.345	80.000	20.007	100.532	20.102	10.510	0.491
376.000	249.418	80.000	20.008	100.513	20.101	10.580	0.549
384.000	253.536	80.002	20.008	100.520	20.079	12.876	0.547
392.000	257.589	80.000	20.007	100.490	20.078	12.959	0.500
400.000	261.625	80.001	20.007	100.540	20.089	11.797	0.560
408.000	265.644	80.000	20.007	100.532	20.090	11.730	0.491
416.000	269.761	80.001	20.008	100.512	20.079	12.829	0.528
424.000	273.779	80.000	20.008	100.505	20.072	13.556	0.503
432.000	277.786	80.000	20.008	100.519	20.057	15.197	0.447
440.000	281.776	80.001	20.008	100.513	20.052	15.697	0.506
448.000	285.618	80.001	20.008	100.507	20.035	17.471	0.447
456.000	289.522	80.000	20.008	100.506	20.027	18.334	0.487
464.000	293.491	80.002	20.008	100.481	20.021	18.888	0.479
472.000	297.438	80.000	20.008	100.491	20.008	20.287	0.482
480.000	301.520	80.000	20.008	100.501	20.000	21.084	0.519
488.000	305.463	80.000	20.008	100.499	19.989	22.281	0.475
496.000	309.503	80.000	20.008	100.493	19.966	24.644	0.525
504.000	313.505	80.001	20.008	100.524	19.936	27.777	0.501
512.000	317.515	80.002	20.008	100.512	19.887	32.846	0.524
520.000	321.578	80.001	20.008	100.517	19.826	39.281	0.471
528.000	325.563	80.001	20.008	100.523	19.742	48.001	0.508
536.000	329.580	80.001	20.008	100.501	19.634	59.275	0.499
544.000	333.559	80.001	20.008	100.506	19.502	73.002	0.524
552.000	337.569	80.001	20.008	100.495	19.350	88.875	0.562
560.000	341.472	80.001	20.007	100.538	19.169	107.695	0.445
568.000	345.436	80.000	20.008	100.555	18.931	132.564	0.510
576.000	349.306	80.000	20.007	100.480	18.779	148.491	0.445
584.000	353.353	80.001	20.007	100.595	18.614	165.745	0.513
592.000	357.269	80.001	20.008	100.601	18.477	179.998	0.529
600.000	361.257	80.001	20.007	100.626	18.326	195.657	0.539
608.000	365.188	80.001	20.007	100.604	18.213	207.337	0.524
616.000	369.319	80.001	20.008	100.591	18.220	207.011	0.551
624.000	373.356	80.001	20.008	100.664	18.282	200.240	0.504
632.001	377.407	80.001	20.010	100.621	18.382	189.999	0.507
640.000	381.503	80.000	20.009	100.592	18.639	163.273	0.484
648.000	385.676	80.001	20.007	100.697	18.873	138.660	0.499
656.000	389.835	80.000	20.008	100.658	19.076	117.469	0.468
664.000	393.911	80.001	20.008	100.628	19.278	96.409	0.496
672.000	397.945	80.002	20.008	100.603	19.493	73.941	0.506
680.000	401.899	80.000	20.008	100.587	19.680	54.459	0.487
688.000	405.799	80.001	20.008	100.564	19.823	39.532	0.498
696.000	409.733	80.002	20.008	100.573	19.932	28.234	0.514
704.000	413.688	80.000	20.008	100.547	20.016	19.477	0.487
712.000	417.571	80.000	20.008	100.544	20.064	14.449	0.499
720.000	421.471	80.000	20.008	100.500	20.087	11.989	0.522
728.000	425.309	80.001	20.008	100.494	20.111	9.560	0.487
736.000	429.186	80.000	20.007	100.489	20.134	7.179	0.507
744.000	433.074	80.002	20.008	100.467	20.148	5.684	0.482
752.000	437.100	80.001	20.008	100.467	20.158	4.618	0.486
760.000	441.069	80.002	20.008	100.484	20.171	3.249	0.521
768.000	444.937	80.000	20.008	100.482	20.174	2.951	0.494
776.000	449.031	80.003	20.008	100.476	20.176	2.802	0.536
784.000	453.131	80.000	20.008	100.472	20.178	2.598	0.516
792.000	457.106	80.001	20.008	100.506	20.186	1.683	0.465
800.000	461.039	80.001	20.008	100.500	20.189	1.380	0.471
808.000	464.847	80.000	20.007	100.456	20.186	1.752	0.462
816.000	468.673	80.002	20.008	100.467	20.181	2.247	0.491
824.000	472.566	80.002	20.008	100.501	20.187	1.582	0.458
832.001	476.426	80.002	20.008	100.458	20.183	2.013	0.464
840.000	480.390	80.002	20.008	100.460	20.184	1.910	0.477
848.000	484.443	80.003	20.008	100.453	20.184	1.974	0.515
856.000	488.454	80.002	20.008	100.448	20.180	2.337	0.524
864.000	492.571	80.000	20.008	100.437	20.184	1.908	0.484
872.000	496.581	80.002	20.008	100.438	20.181	2.232	0.476
880.000	500.661	80.002	20.008	100.476	20.190	1.296	0.497
888.000	504.385	80.002	20.008	100.430	20.185	1.794	0.445
896.000	508.288	80.002	20.008	100.465	20.189	1.384	0.508
904.000	512.185	80.001	20.008	100.471	20.186	1.721	0.492
912.000	516.127	80.000	20.008	100.459	20.186	1.672	0.512
920.000	520.063	80.002	20.008	100.496	20.193	0.944	0.507
928.000	523.999	80.002	20.008	100.478	20.188	1.543	0.471
936.000	527.964	80.001	20.008	100.485	20.191	1.186	0.485
944.000	531.923	80.002	20.008	100.486	20.188	1.560	0.474
952.000	535.833	80.002	20.008	100.424	20.184	1.884	0.508
960.000	539.683	80.000	20.008	100.488	20.187	1.608	0.487
968.000	543.551	80.002	20.008	100.475	20.185	1.789	0.473
976.000	547.539	80.001	20.008	100.461	20.187	1.662	0.481
984.000	551.395	80.002	20.008	100.468	20.190	1.327	0.508
992.000	555.272	80.003	20.008	100.512	20.195	0.823	0.514
1000.000	559.202	80.003	20.008	100.461	20.185	1.816	0.516
1008.000	563.333	80.001	20.008	100.462	20.184	1.933	0.527
1016.000	567.443	80.001	20.008	100.472	20.188	1.514	0.522
1024.000	571.454	80.002	20.008	100.486	20.191	1.197	0.514
1032.000	575.453	80.002	20.007	100.511	20.198	0.495	0.519
1040.001	579.413	80.002	20.008	100.478	20.190	1.281	0.497
1048.000	583.402	80.002	20.008	100.479	20.193	0.984	0.522
1056.000	587.355	80.001	20.008	100.468	20.189	1.439	0.483
1064.001	591.315	80.002	20.008	100.481	20.190	1.268	0.492
1072.000	595.104	80.001	20.008	100.480	20.183	1.994	0.499
1080.000	599.112	80.002	20.008	100.479	20.184	1.957	0.530
1088.000	603.157	80.002	20.008	100.487	20.188	1.547	0.497
1096.000	607.246	80.003	20.008	100.477	20.183	2.047	0.498
1104.000	611.380	80.002	20.008	100.467	20.185	1.864	0.530
1112.000	615.240	80.001	20.008	100.489	20.188	1.505	0.511
1120.001	619.276	80.002	20.008	100.466	20.182	2.164	0.536
1128.000	623.272	80.001	20.008	100.478	20.187	1.591	0.500
1136.001	627.319	80.003	20.008	100.473	20.187	1.647	0.515
1144.001	631.273	80.001	20.008	100.502	20.189	1.437	0.484
1152.000	635.198	80.001	20.008	100.515	20.187	1.660	0.483
1160.000	639.091	80.000	20.008	100.537	20.191	1.198	0.481
1168.000	643.002	80.000	20.008	100.517	20.187	1.581	0.443
1176.000	646.918	80.002	20.008	100.481	20.187	1.592	0.486
1184.001	650.717	80.002	20.008	100.520	20.191	1.223	0.454
1192.000	654.655	80.000	20.008	100.512	20.188	1.481	0.482
1200.001	658.718	80.001	20.009	100.484	20.189	1.461	0.530
1208.000	663.005	80.003	20.008	100.436	20.174	2.948	0.578
1216.000	667.240	80.003	20.008	100.489	20.181	2.257	0.579
1224.000	671.324	80.001	20.008	100.469	20.176	2.800	0.483
1232.000	675.533	80.001	20.008	100.479	20.177	2.675	0.554
1240.000	679.771	80.002	20.008	100.499	20.178	2.556	0.548
1248.000	684.125	80.002	20.008	100.457	20.180	2.402	0.514
1256.000	688.288	80.001	20.008	100.508	20.182	2.162	0.534
1264.000	692.342	80.001	20.008	100.548	20.184	1.949	0.494
1272.001	696.225	80.001	20.007	100.522	20.186	1.772	0.465
1280.000	700.145	80.002	20.008	100.512	20.182	2.192	0.507
1288.000	704.169	80.001	20.008	100.499	20.178	2.578	0.522
1296.000	708.109	80.001	20.008	100.513	20.173	3.072	0.516
1304.000	711.980	80.001	20.008	100.472	20.167	3.737	0.484
1312.000	715.817	80.001	20.008	100.506	20.164	3.968	0.487
1320.000	719.822	80.000	20.008	100.482	20.163	4.163	0.509
1328.000	723.918	80.002	20.008	100.467	20.160	4.427	0.525
1336.001	728.172	80.001	20.008	100.502	20.164	4.036	0.503
1344.000	732.478	80.001	20.008	100.500	20.166	3.800	0.563
1352.000	736.653	80.003	20.008	100.466	20.167	3.729	0.525
1360.000	740.895	80.002	20.008	100.547	20.169	3.521	0.516
1363.000	742.503	80.002	20.007	100.500	20.167	3.717	0.538

File: mcc_powder_1mg_dyn30_r2.txt
Sample Weight (mg):	1.02
Heating Rate (C/s):	0.5
Combustor Temp (C):	900
N2 Flow Rate (cc/min):	80
O2 Flow Rate (cc/min):	20
Time (s)	Temperature (C)	N2 flow rate (cc/min)	O2 flow rate (cc/min)	Flow Rate (cc/min)	Oxygen (%)	HRR (W/g)	Heating rate (C/s)
0.000	89.397	80.004	20.009	100.253	20.032	0.026	0.027
8.000	90.068	80.005	20.009	100.261	20.034	-0.546	0.084
16.000	90.771	80.006	20.005	100.337	20.028	1.301	0.099
24.000	91.451	80.003	20.009	100.339	20.032	-0.124	0.058
32.000	92.322	80.004	20.009	100.391	20.010	6.736	0.115
40.000	93.532	80.003	20.009	100.406	20.004	8.689	0.193
48.000	94.963	80.003	20.009	100.428	19.988	13.400	0.211
56.000	96.782	80.005	20.009	100.496	19.983	14.920	0.270
64.000	99.198	80.003	20.009	100.512	19.980	15.952	0.318
72.001	101.869	80.003	20.009	100.497	19.978	16.554	0.340
80.001	104.991	80.004	20.010	100.522	19.976	17.197	0.378
88.000	108.356	80.003	20.010	100.541	19.975	17.378	0.445
96.001	112.017	80.004	20.010	100.555	19.975	17.418	0.473
104.000	116.039	80.003	20.009	100.565	19.976	17.151	0.508
112.001	120.156	80.003	20.008	100.534	19.974	17.796	0.505
120.000	124.525	80.005	20.009	100.526	19.980	16.044	0.577
128.000	128.946	80.003	20.008	100.531	19.983	14.950	0.536
136.000	133.523	80.004	20.009	100.505	19.984	14.671	0.562
144.000	138.176	80.004	20.009	100.476	19.983	15.143	0.574
152.000	142.745	80.004	20.009	100.487	19.985	14.344	0.589
160.000	147.341	80.003	20.009	100.458	19.987	13.679	0.608
168.000	151.878	80.003	20.009	100.470	19.980	16.022	0.578
176.000	156.437	80.004	20.009	100.461	19.977	16.870	0.574
184.000	160.822	80.005	20.009	100.446	19.973	18.190	0.536
192.000	165.282	80.004	20.009	100.414	19.969	19.401	0.577
200.000	169.660	80.003	20.009	100.416	19.963	21.024	0.560
208.000	173.986	80.004	20.009	100.405	19.960	22.055	0.530
216.000	178.265	80.003	20.009	100.398	19.962	21.348	0.548
224.000	182.462	80.003	20.009	100.415	19.965	20.567	0.561
232.000	186.649	80.004	20.009	100.399	19.975	17.385	0.526
240.000	190.691	80.003	20.009	100.405	19.985	14.352	0.461
248.000	194.861	80.005	20.010	100.400	19.989	13.033	0.532
256.000	198.886	80.002	20.009	100.393	19.999	9.973	0.541
264.000	202.844	80.004	20.009	100.405	20.001	9.425	0.484
272.000	206.935	80.003	20.010	100.394	20.005	8.191	0.509
280.000	211.026	80.006	20.009	100.384	20.010	6.647	0.515
288.000	214.980	80.004	20.009	100.396	20.010	6.812	0.475
296.000	219.117	80.003	20.009	100.384	20.009	7.188	0.507
304.000	223.050	80.004	20.009	100.382	20.007	7.552	0.511
312.000	227.096	80.004	20.010	100.377	20.009	6.902	0.506
320.000	230.983	80.004	20.009	100.356	20.012	6.206	0.496
328.000	235.030	80.006	20.009	100.385	20.010	6.785	0.494
336.000	239.053	80.005	20.009	100.396	20.008	7.455	0.489
344.000	243.102	80.005	20.009	100.361	20.009	7.194	0.550
352.000	247.121	80.004	20.009	100.378	20.012	6.120	0.498
360.000	251.074	80.003	20.009	100.355	20.010	6.731	0.486
368.000	255.054	80.003	20.009	100.337	20.015	5.190	0.418
376.000	259.113	80.003	20.010	100.346	20.010	6.699	0.580
384.000	263.148	80.003	20.009	100.355	20.011	6.418	0.391
392.000	267.107	80.005	20.010	100.334	20.010	6.718	0.409
400.000	271.113	80.004	20.010	100.359	19.999	9.987	0.622
408.000	275.169	80.004	20.010	100.328	19.993	11.947	0.495
416.000	279.175	80.003	20.010	100.335	19.989	13.123	0.502
424.000	283.109	80.004	20.009	100.355	19.976	17.046	0.416
432.000	287.224	80.003	20.009	100.337	19.971	18.623	0.599
440.000	291.152	80.004	20.009	100.358	19.964	20.791	0.477
448.000	295.240	80.005	20.010	100.359	19.968	19.634	0.560
456.000	299.212	80.004	20.010	100.337	19.956	23.247	0.509
464.001	303.273	80.004	20.009	100.348	19.955	23.621	0.503
472.001	307.237	80.004	20.009	100.343	19.954	23.900	0.429
480.000	311.383	80.003	20.009	100.350	19.947	26.032	0.442
488.000	315.582	80.004	20.009	100.364	19.933	30.486	0.473
496.000	319.776	80.003	20.009	100.332	19.904	39.207	0.505
504.001	323.907	80.004	20.009	100.315	19.865	51.206	0.539
512.000	327.967	80.005	20.009	100.302	19.829	62.194	0.520
520.000	331.890	80.005	20.009	100.294	19.778	77.975	0.577
528.000	336.003	80.005	20.009	100.302	19.727	93.683	0.618
536.000	339.874	80.004	20.009	100.289	19.675	109.470	0.477
544.000	343.879	80.004	20.008	100.293	19.619	126.799	0.510
552.000	347.991	80.003	20.009	100.291	19.570	141.701	0.497
560.000	351.908	80.005	20.009	100.300	19.534	152.754	0.445
568.000	355.916	80.003	20.009	100.329	19.481	169.020	0.562
576.000	359.937	80.004	20.009	100.308	19.439	181.887	0.496
584.000	363.748	80.003	20.008	100.332	19.419	187.948	0.514
592.000	367.763	80.005	20.009	100.322	19.416	189.106	0.453
600.000	371.840	80.007	20.009	100.340	19.436	182.942	0.545
608.000	375.560	80.003	20.009	100.401	19.457	176.543	0.368
616.000	379.469	80.004	20.009	100.382	19.503	162.522	0.356
624.000	383.370	80.004	20.009	100.391	19.561	144.605	0.505
632.000	387.427	80.004	20.009	100.434	19.622	125.993	0.523
640.000	391.310	80.005	20.010	100.426	19.697	102.801	0.437
648.000	395.213	80.004	20.008	100.481	19.755	85.181	0.379
656.000	399.254	80.003	20.009	100.426	19.823	64.037	0.553
664.000	403.200	80.004	20.009	100.435	19.870	49.883	0.472
672.000	407.084	80.004	20.008	100.413	19.914	36.162	0.511
680.000	411.098	80.006	20.009	100.414	19.951	24.777	0.480
688.000	415.129	80.004	20.009	100.386	19.977	17.003	0.583
696.000	419.088	80.004	20.009	100.386	20.001	9.520	0.495
704.000	423.121	80.004	20.009	100.357	20.005	8.135	0.531
712.000	426.922	80.002	20.008	100.359	20.014	5.436	0.484
720.000	430.821	80.004	20.008	100.352	20.023	2.893	0.471
728.000	434.725	80.004	20.009	100.335	20.027	1.398	0.355
736.000	438.608	80.003	20.009	100.350	20.028	1.203	0.466
744.000	442.598	80.004	20.009	100.327	20.033	-0.273	0.565
752.000	446.540	80.003	20.009	100.326	20.024	2.503	0.494
760.000	450.625	80.005	20.009	100.299	20.021	3.484	0.562
768.000	454.277	80.004	20.009	100.316	20.027	1.528	0.328
776.000	458.217	80.005	20.010	100.330	20.026	1.795	0.521
784.000	462.228	80.004	20.009	100.330	20.028	1.066	0.506
792.000	466.082	80.004	20.009	100.327	20.030	0.702	0.539
800.000	469.837	80.004	20.008	100.331	20.028	1.073	0.508
808.000	473.675	80.005	20.009	100.308	20.028	1.157	0.311
816.000	477.717	80.004	20.009	100.314	20.031	0.208	0.509
824.000	481.468	80.005	20.009	100.324	20.030	0.689	0.564
832.000	485.642	80.006	20.009	100.335	20.035	-0.800	0.566
840.000	489.521	80.004	20.008	100.322	20.033	-0.468	0.540
848.000	493.722	80.004	20.009	100.311	20.034	-0.748	0.559
856.000	497.620	80.004	20.008	100.317	20.034	-0.494	0.572
864.000	501.703	80.005	20.008	100.311	20.026	1.710	0.533
872.000	505.712	80.004	20.008	100.329	20.030	0.728	0.576
880.000	509.441	80.003	20.009	100.331	20.040	-2.561	0.261
888.000	513.481	80.005	20.009	100.326	20.036	-1.105	0.485
896.000	517.793	80.006	20.010	100.296	20.025	2.035	0.493
904.000	521.699	80.005	20.009	100.328	20.031	0.273	0.514
912.000	525.482	80.006	20.010	100.313	20.032	-0.137	0.547
920.000	529.262	80.004	20.009	100.322	20.027	1.372	0.516
928.001	533.091	80.002	20.009	100.331	20.034	-0.572	0.460
936.000	537.130	80.006	20.010	100.302	20.038	-1.723	0.601
944.000	540.933	80.003	20.009	100.335	20.031	0.429	0.501
952.000	544.957	80.004	20.009	100.321	20.031	0.306	0.435
960.000	548.766	80.005	20.009	100.321	20.033	-0.306	0.416
968.000	552.763	80.004	20.009	100.312	20.030	0.540	0.517
976.000	556.794	80.004	20.009	100.317	20.034	-0.533	0.566
984.000	560.517	80.003	20.009	100.330	20.033	-0.429	0.446
992.000	564.447	80.004	20.009	100.322	20.037	-1.573	0.626
1000.000	568.305	80.003	20.009	100.325	20.029	1.027	0.478
1008.000	572.268	80.004	20.009	100.320	20.027	1.450	0.630
1016.000	576.066	80.004	20.009	100.332	20.029	0.845	0.449
1024.000	579.988	80.005	20.010	100.317	20.030	0.689	0.603
1032.000	583.900	80.004	20.009	100.331	20.027	1.567	0.491
1040.000	587.907	80.004	20.010	100.327	20.028	1.326	0.537
1048.000	591.860	80.003	20.009	100.334	20.030	0.501	0.499
1056.000	595.883	80.004	20.010	100.323	20.030	0.650	0.501
1064.000	600.038	80.005	20.009	100.354	20.029	0.800	0.583
1072.000	604.142	80.003	20.010	100.337	20.028	1.209	0.596
1080.000	608.267	80.004	20.010	100.324	20.034	-0.709	0.494
1088.001	612.276	80.004	20.009	100.320	20.028	1.066	0.487
1096.000	616.363	80.004	20.010	100.318	20.032	-0.072	0.572
1104.000	620.182	80.004	20.009	100.324	20.034	-0.494	0.505
1112.000	624.163	80.005	20.009	100.361	20.036	-1.255	0.525
1120.000	628.155	80.003	20.010	100.347	20.036	-1.216	0.479
1128.001	632.068	80.005	20.009	100.326	20.034	-0.514	0.406
1136.000	636.220	80.004	20.010	100.340	20.031	0.429	0.566
1144.000	640.213	80.003	20.010	100.334	20.030	0.650	0.500
1152.000	644.161	80.004	20.010	100.349	20.031	0.208	0.493
1160.000	648.097	80.004	20.010	100.345	20.031	0.377	0.453
1168.001	651.986	80.004	20.010	100.349	20.025	2.230	0.525
1176.001	655.992	80.004	20.010	100.359	20.030	0.462	0.449
1184.000	660.029	80.004	20.010	100.330	20.024	2.289	0.513
1192.000	664.235	80.004	20.010	100.347	20.031	0.247	0.509
1200.000	668.293	80.005	20.010	100.353	20.028	1.138	0.490
1208.001	672.374	80.004	20.009	100.359	20.028	1.340	0.479
1216.000	676.407	80.004	20.010	100.335	20.028	1.268	0.479
1224.001	680.230	80.006	20.010	100.351	20.031	0.403	0.509
1232.000	684.160	80.005	20.009	100.364	20.030	0.598	0.473
1240.000	688.178	80.006	20.010	100.363	20.034	-0.540	0.353
1248.000	692.021	80.005	20.010	100.353	20.032	-0.137	0.558
1256.000	696.150	80.005	20.010	100.348	20.028	1.210	0.560
1264.000	700.078	80.003	20.009	100.374	20.025	2.075	0.472
1272.000	704.118	80.005	20.010	100.401	20.026	1.873	0.510
1280.001	708.308	80.007	20.010	100.366	20.029	0.904	0.483
1288.001	712.406	80.005	20.010	100.351	20.029	0.891	0.531
1296.000	716.598	80.003	20.010	100.343	20.023	2.810	0.677
1304.000	720.497	80.003	20.009	100.354	20.025	2.185	0.301
1312.001	724.561	80.004	20.010	100.388	20.023	2.732	0.506
1320.000	728.672	80.005	20.010	100.357	20.030	0.722	0.472
1328.000	732.894	80.006	20.010	100.373	20.019	4.000	0.637
1336.000	737.018	80.004	20.010	100.344	20.016	4.853	0.559
1344.000	740.978	80.005	20.010	100.388	20.020	3.532	0.480
1347.501	742.757	80.004	20.010	100.379	20.018	4.196	0.608