Folder: Pyrolysis_BESKID/Experiments/TUBS/mcc (part 7)

File: mcc_powder_3mg_dyn30_r2.txt
Sample Weight (mg):	3.04
Heating Rate (C/s):	0.5
Combustor Temp (C):	900
N2 Flow Rate (cc/min):	80
O2 Flow Rate (cc/min):	20
Time (s)	Temperature (C)	N2 flow rate (cc/min)	O2 flow rate (cc/min)	Flow Rate (cc/min)	Oxygen (%)	HRR (W/g)	Heating rate (C/s)
0.000	90.697	79.998	20.008	99.991	20.160	-7.521	0.009
8.000	90.770	80.002	20.009	100.454	20.100	-1.270	-0.006
16.000	90.920	80.002	20.009	100.566	20.076	1.158	0.032
24.000	91.419	80.002	20.010	100.614	20.060	2.840	0.031
32.000	92.342	80.002	20.009	100.581	20.058	3.002	0.101
40.001	93.492	80.002	20.010	100.632	20.058	2.997	0.208
48.001	95.057	80.002	20.010	100.641	20.054	3.427	0.214
56.001	96.916	80.001	20.009	100.672	20.044	4.482	0.283
64.000	99.032	80.002	20.009	100.737	20.033	5.626	0.292
72.001	101.532	80.004	20.010	100.759	20.030	5.978	0.335
80.001	104.537	80.001	20.009	100.761	20.026	6.384	0.368
88.001	107.953	80.001	20.010	100.772	20.023	6.715	0.432
96.001	111.750	80.001	20.010	100.801	20.018	7.136	0.520
104.001	115.852	80.001	20.010	100.804	20.014	7.622	0.590
112.001	120.161	80.001	20.010	100.778	20.012	7.852	0.545
120.000	124.700	80.002	20.009	100.750	20.013	7.739	0.580
128.000	129.371	80.001	20.010	100.734	20.013	7.647	0.608
136.000	134.248	80.003	20.010	100.703	20.014	7.614	0.630
144.000	139.043	80.001	20.010	100.694	20.005	8.488	0.592
152.000	143.850	80.001	20.009	100.677	19.999	9.183	0.613
160.000	148.577	80.002	20.010	100.688	19.991	9.984	0.542
168.000	153.247	80.001	20.009	100.680	19.981	11.003	0.607
176.000	157.944	80.002	20.008	100.640	19.962	13.004	0.661
184.000	162.584	80.002	20.009	100.607	19.946	14.645	0.583
192.000	167.027	80.002	20.010	100.597	19.932	16.071	0.537
200.000	171.461	80.003	20.010	100.641	19.932	16.011	0.538
208.000	175.788	80.003	20.009	100.610	19.942	15.034	0.532
216.000	180.056	80.002	20.009	100.599	19.964	12.753	0.488
224.000	184.252	80.002	20.010	100.608	19.992	9.838	0.533
232.000	188.382	80.002	20.009	100.651	20.009	8.071	0.499
240.000	192.502	80.001	20.010	100.626	20.015	7.534	0.487
248.000	196.488	80.002	20.009	100.598	20.021	6.891	0.525
256.001	200.369	80.003	20.010	100.615	20.030	5.983	0.459
264.000	204.351	80.002	20.009	100.606	20.029	6.038	0.518
272.000	208.380	80.001	20.010	100.582	20.031	5.849	0.515
280.000	212.330	80.002	20.010	100.591	20.031	5.852	0.486
288.000	216.333	80.003	20.009	100.609	20.034	5.520	0.496
296.000	220.425	80.002	20.009	100.553	20.038	5.090	0.546
304.000	224.434	80.002	20.010	100.592	20.042	4.652	0.541
312.000	228.403	80.001	20.010	100.627	20.042	4.666	0.446
320.001	232.420	80.002	20.010	100.568	20.043	4.559	0.493
328.000	236.406	80.001	20.009	100.583	20.040	4.916	0.449
336.000	240.539	80.004	20.009	100.622	20.041	4.767	0.465
344.000	244.662	80.002	20.009	100.593	20.040	4.930	0.548
352.000	248.824	80.002	20.009	100.587	20.036	5.270	0.519
360.000	252.938	80.002	20.010	100.555	20.030	5.940	0.510
368.000	256.901	80.002	20.009	100.595	20.021	6.817	0.468
376.000	261.046	80.002	20.010	100.567	20.015	7.484	0.541
384.000	265.006	80.003	20.009	100.546	20.001	8.949	0.509
392.000	269.038	80.003	20.010	100.550	19.982	10.895	0.476
400.000	273.047	80.001	20.010	100.555	19.965	12.679	0.473
408.000	276.917	80.004	20.010	100.529	19.943	14.896	0.501
416.000	280.846	80.001	20.008	100.464	19.925	16.773	0.475
424.000	284.753	80.001	20.010	100.547	19.913	18.019	0.502
432.000	288.715	80.002	20.009	100.585	19.902	19.164	0.525
440.000	292.639	80.003	20.010	100.543	19.889	20.464	0.498
448.000	296.629	80.001	20.010	100.561	19.874	21.983	0.538
456.000	300.642	80.002	20.009	100.569	19.855	24.035	0.484
464.000	304.658	80.002	20.009	100.558	19.827	26.832	0.500
472.000	308.692	80.003	20.009	100.534	19.780	31.765	0.506
480.000	312.752	80.003	20.010	100.529	19.710	38.927	0.495
488.000	316.635	80.003	20.009	100.557	19.627	47.518	0.446
496.000	320.657	80.002	20.010	100.512	19.522	58.295	0.539
504.000	324.640	80.003	20.010	100.484	19.407	70.223	0.477
512.000	328.596	80.002	20.010	100.500	19.281	83.202	0.505
520.000	332.607	80.003	20.009	100.483	19.151	96.600	0.485
528.000	336.611	80.001	20.010	100.492	19.020	110.069	0.502
536.000	340.683	80.002	20.009	100.511	18.907	121.797	0.518
544.000	344.660	80.001	20.010	100.496	18.808	132.060	0.517
552.000	348.583	80.001	20.009	100.552	18.729	140.374	0.491
560.000	352.615	80.002	20.010	100.577	18.651	148.327	0.485
568.000	356.484	80.002	20.010	100.641	18.525	161.244	0.505
576.000	360.383	80.002	20.009	100.606	18.372	176.861	0.505
584.000	364.375	80.003	20.008	100.468	18.372	177.414	0.522
592.000	368.370	80.002	20.009	100.610	18.514	162.767	0.501
600.000	372.393	80.002	20.009	100.785	18.611	152.653	0.505
608.000	376.288	80.003	20.009	100.747	18.702	143.167	0.471
616.000	380.316	80.003	20.010	100.723	18.797	133.349	0.500
624.000	384.307	80.002	20.010	100.737	18.929	119.815	0.520
632.000	388.229	80.003	20.009	100.770	19.082	104.022	0.499
640.000	392.283	80.003	20.010	100.746	19.244	87.210	0.510
648.000	396.339	80.002	20.010	100.798	19.403	70.781	0.529
656.000	400.376	80.002	20.010	100.758	19.555	55.021	0.547
664.000	404.311	80.001	20.009	100.764	19.689	41.175	0.524
672.000	408.263	80.002	20.010	100.742	19.800	29.660	0.531
680.001	412.153	80.001	20.009	100.715	19.887	20.724	0.548
688.008	415.989	80.002	20.010	100.700	19.946	14.564	0.494
696.008	419.909	80.002	20.008	100.648	19.991	9.953	0.506
704.009	423.832	80.001	20.009	100.607	20.015	7.477	0.497
712.005	427.725	80.002	20.010	100.588	20.035	5.391	0.479
720.000	431.680	80.002	20.009	100.558	20.047	4.187	0.482
728.000	435.697	80.002	20.009	100.551	20.056	3.275	0.556
736.000	439.648	80.003	20.009	100.543	20.061	2.693	0.518
744.000	443.638	80.002	20.009	100.543	20.064	2.420	0.518
752.000	447.650	80.003	20.009	100.562	20.063	2.520	0.519
760.000	451.647	80.003	20.010	100.525	20.065	2.306	0.507
768.000	455.587	80.001	20.010	100.510	20.063	2.557	0.485
776.000	459.611	80.002	20.009	100.506	20.061	2.708	0.525
784.000	463.429	80.002	20.008	100.520	20.069	1.925	0.470
792.001	467.168	80.001	20.008	100.528	20.064	2.437	0.449
800.000	471.039	80.002	20.009	100.534	20.064	2.431	0.495
808.000	474.919	80.002	20.009	100.519	20.064	2.441	0.522
816.000	478.871	80.002	20.010	100.513	20.068	1.986	0.504
824.000	482.856	80.003	20.009	100.522	20.066	2.230	0.507
832.000	486.859	80.002	20.009	100.524	20.068	2.056	0.493
840.000	490.760	80.004	20.009	100.517	20.066	2.189	0.478
848.000	494.738	80.003	20.009	100.514	20.066	2.245	0.508
856.000	498.733	80.003	20.009	100.492	20.064	2.413	0.474
864.000	502.808	80.002	20.009	100.504	20.061	2.696	0.529
872.000	506.729	80.002	20.010	100.519	20.065	2.304	0.510
880.000	510.606	80.002	20.008	100.529	20.067	2.112	0.480
888.001	514.587	80.001	20.009	100.521	20.065	2.362	0.478
896.000	518.520	80.003	20.009	100.488	20.065	2.269	0.475
904.000	522.403	80.002	20.009	100.502	20.063	2.539	0.495
912.000	526.311	80.002	20.009	100.504	20.062	2.603	0.475
920.000	530.254	80.003	20.009	100.505	20.061	2.754	0.496
928.000	534.249	80.002	20.009	100.497	20.064	2.379	0.504
936.000	538.229	80.002	20.008	100.514	20.070	1.816	0.517
944.000	542.255	80.002	20.009	100.537	20.063	2.502	0.504
952.000	546.319	80.002	20.009	100.515	20.063	2.524	0.478
960.000	550.241	80.003	20.009	100.512	20.062	2.583	0.479
968.000	554.228	80.003	20.009	100.515	20.062	2.594	0.509
976.000	558.120	80.001	20.009	100.489	20.064	2.441	0.439
984.000	562.037	80.001	20.009	100.479	20.065	2.344	0.522
992.000	565.903	80.001	20.008	100.521	20.067	2.066	0.503
1000.000	569.774	80.001	20.009	100.503	20.068	2.016	0.485
1008.000	573.737	80.002	20.008	100.500	20.065	2.273	0.507
1016.000	577.738	80.001	20.008	100.491	20.068	2.001	0.498
1024.000	581.536	80.001	20.008	100.498	20.069	1.951	0.461
1032.000	585.507	80.002	20.008	100.510	20.064	2.391	0.493
1040.000	589.567	80.003	20.009	100.495	20.067	2.066	0.556
1048.000	593.600	80.001	20.009	100.508	20.067	2.082	0.471
1056.000	597.748	80.001	20.009	100.511	20.067	2.125	0.496
1064.000	601.855	80.002	20.009	100.489	20.066	2.254	0.544
1072.000	605.860	80.001	20.009	100.492	20.064	2.393	0.502
1080.000	609.832	80.002	20.009	100.489	20.063	2.504	0.477
1088.000	613.725	80.003	20.009	100.525	20.067	2.145	0.475
1096.000	617.826	80.004	20.009	100.507	20.062	2.675	0.460
1104.000	621.908	80.001	20.009	100.503	20.063	2.550	0.496
1112.000	625.881	80.003	20.009	100.494	20.064	2.424	0.505
1120.000	629.938	80.002	20.009	100.516	20.063	2.474	0.484
1128.001	633.889	80.003	20.008	100.510	20.065	2.337	0.468
1136.000	637.867	80.002	20.009	100.480	20.063	2.561	0.512
1144.000	641.943	80.001	20.009	100.519	20.061	2.719	0.542
1152.000	645.918	80.002	20.009	100.531	20.061	2.767	0.502
1160.000	649.921	80.002	20.009	100.508	20.064	2.469	0.518
1168.000	653.825	80.002	20.009	100.482	20.061	2.685	0.497
1176.000	657.751	80.004	20.009	100.499	20.062	2.628	0.505
1184.000	661.670	80.002	20.009	100.504	20.060	2.829	0.470
1192.000	665.633	80.002	20.009	100.510	20.062	2.651	0.485
1200.000	669.690	80.002	20.009	100.520	20.060	2.823	0.544
1208.000	673.713	80.003	20.009	100.502	20.058	3.040	0.496
1216.000	677.792	80.001	20.008	100.497	20.060	2.855	0.528
1224.000	681.845	80.003	20.008	100.493	20.061	2.760	0.506
1232.001	685.906	80.001	20.008	100.494	20.059	2.905	0.508
1240.001	690.000	80.002	20.008	100.496	20.061	2.735	0.505
1248.000	693.968	80.003	20.010	100.463	20.061	2.770	0.521
1256.001	697.931	80.002	20.009	100.508	20.062	2.657	0.482
1264.000	701.956	80.002	20.008	100.493	20.061	2.765	0.519
1272.000	706.061	80.002	20.008	100.470	20.059	2.973	0.527
1280.000	710.245	80.003	20.008	100.517	20.058	3.024	0.558
1288.000	714.351	80.002	20.008	100.530	20.058	3.077	0.502
1296.000	718.464	80.002	20.008	100.497	20.058	3.022	0.472
1304.000	722.466	80.002	20.009	100.470	20.058	3.074	0.506
1312.000	726.528	80.002	20.008	100.501	20.058	3.011	0.527
1320.000	730.632	80.002	20.008	100.523	20.057	3.112	0.502
1328.000	734.790	80.001	20.009	100.501	20.061	2.779	0.561
1336.000	738.916	80.001	20.009	100.487	20.061	2.714	0.507
1343.500	742.604	80.002	20.009	100.495	20.061	2.738	0.518

File: mcc_powder_3mg_dyn30_r3.txt
Sample Weight (mg):	3.05
Heating Rate (C/s):	0.5
Combustor Temp (C):	900
N2 Flow Rate (cc/min):	80
O2 Flow Rate (cc/min):	20
Time (s)	Temperature (C)	N2 flow rate (cc/min)	O2 flow rate (cc/min)	Flow Rate (cc/min)	Oxygen (%)	HRR (W/g)	Heating rate (C/s)
0.000	89.737	80.002	20.008	100.059	20.151	2.850	-0.092
8.000	89.042	80.001	20.008	100.498	20.102	7.825	-0.104
16.000	88.612	80.001	20.008	100.537	20.089	9.136	-0.073
24.000	88.539	80.002	20.008	100.538	20.083	9.810	0.013
32.000	88.693	80.001	20.009	100.543	20.075	10.654	0.072
40.000	89.310	80.001	20.009	100.681	20.059	12.239	0.106
48.001	90.424	80.001	20.009	100.657	20.058	12.396	0.181
56.000	91.836	80.001	20.009	100.712	20.051	13.097	0.214
64.001	93.795	80.001	20.009	100.717	20.046	13.623	0.245
72.000	96.226	80.001	20.010	100.711	20.043	13.900	0.305
80.000	98.916	80.001	20.009	100.754	20.041	14.136	0.320
88.001	102.073	80.003	20.009	100.748	20.041	14.177	0.425
96.000	105.669	80.003	20.010	100.764	20.044	13.824	0.465
104.000	109.438	80.001	20.009	100.746	20.037	14.529	0.492
112.001	113.538	80.003	20.009	100.760	20.037	14.524	0.546
120.000	117.740	80.002	20.010	100.742	20.036	14.647	0.550
128.000	122.185	80.001	20.010	100.743	20.035	14.760	0.553
136.000	126.750	80.002	20.009	100.734	20.028	15.483	0.570
144.001	131.418	80.002	20.009	100.683	20.028	15.521	0.617
152.000	136.116	80.001	20.009	100.672	20.028	15.438	0.608
160.000	140.859	80.002	20.009	100.629	20.019	16.402	0.564
168.000	145.597	80.002	20.009	100.625	20.010	17.327	0.613
176.000	150.227	80.002	20.009	100.639	20.000	18.376	0.578
184.000	154.824	80.003	20.009	100.643	19.984	20.003	0.556
192.000	159.472	80.003	20.009	100.620	19.963	22.165	0.607
200.001	164.019	80.001	20.009	100.596	19.951	23.357	0.533
208.000	168.567	80.002	20.010	100.592	19.940	24.567	0.530
216.000	173.117	80.001	20.009	100.596	19.945	24.007	0.586
224.000	177.533	80.002	20.009	100.588	19.956	22.856	0.594
232.000	181.980	80.002	20.009	100.576	19.974	20.990	0.587
240.000	186.456	80.002	20.009	100.697	19.999	18.473	0.574
248.000	190.800	80.001	20.009	100.599	20.023	15.950	0.529
256.000	195.147	80.003	20.009	100.596	20.035	14.691	0.582
264.000	199.450	80.002	20.009	100.581	20.045	13.686	0.510
272.000	203.657	80.001	20.009	100.554	20.052	13.040	0.535
280.000	207.820	80.002	20.009	100.549	20.058	12.392	0.487
288.000	211.887	80.001	20.009	100.539	20.060	12.183	0.498
296.000	215.854	80.003	20.009	100.566	20.055	12.630	0.503
304.000	219.907	80.002	20.009	100.550	20.059	12.257	0.504
312.000	223.822	80.003	20.010	100.542	20.064	11.792	0.488
320.000	227.822	80.002	20.009	100.526	20.069	11.215	0.492
328.000	231.779	80.002	20.009	100.547	20.073	10.834	0.474
336.000	235.795	80.002	20.009	100.545	20.075	10.669	0.508
344.000	239.805	80.003	20.009	100.533	20.075	10.643	0.562
352.000	243.788	80.001	20.009	100.533	20.072	10.977	0.508
360.000	247.822	80.002	20.009	100.530	20.068	11.290	0.478
368.000	251.820	80.002	20.009	100.544	20.064	11.782	0.530
376.000	255.888	80.001	20.009	100.536	20.059	12.250	0.525
384.000	259.923	80.001	20.010	100.502	20.048	13.429	0.519
392.000	263.971	80.001	20.009	100.515	20.039	14.358	0.500
400.000	268.036	80.002	20.009	100.521	20.020	16.259	0.544
408.000	272.088	80.002	20.010	100.519	20.002	18.097	0.501
416.000	276.090	80.002	20.009	100.497	19.987	19.665	0.468
424.000	280.088	80.000	20.009	100.513	19.971	21.308	0.531
432.000	284.116	80.002	20.010	100.482	19.956	22.862	0.508
440.000	288.096	80.002	20.009	100.489	19.939	24.563	0.476
448.000	292.181	80.004	20.010	100.523	19.932	25.273	0.524
456.000	296.118	80.001	20.008	100.518	19.915	27.092	0.519
464.000	300.186	80.004	20.009	100.502	19.897	28.956	0.496
472.000	304.232	80.002	20.009	100.510	19.867	32.012	0.512
480.000	308.268	80.002	20.009	100.493	19.822	36.635	0.471
488.000	312.366	80.001	20.009	100.476	19.758	43.149	0.503
496.000	316.400	80.002	20.010	100.474	19.676	51.656	0.519
504.000	320.491	80.002	20.010	100.459	19.569	62.665	0.500
512.000	324.541	80.001	20.009	100.468	19.453	74.480	0.477
520.001	328.531	80.003	20.010	100.463	19.320	88.208	0.475
528.000	332.507	80.004	20.010	100.448	19.185	102.075	0.509
536.000	336.394	80.001	20.010	100.448	19.057	115.189	0.458
544.000	340.357	80.002	20.009	100.475	18.950	126.268	0.492
552.000	344.245	80.001	20.009	100.489	18.863	135.230	0.478
560.000	348.008	80.002	20.010	100.515	18.800	141.761	0.462
568.000	351.867	80.002	20.009	100.574	18.745	147.688	0.515
576.000	355.734	80.002	20.009	100.574	18.619	160.240	0.503
584.000	359.767	80.002	20.009	100.576	18.467	175.949	0.557
592.000	363.675	80.002	20.009	100.445	18.451	177.780	0.459
600.001	367.628	80.002	20.009	100.575	18.539	168.915	0.489
608.000	371.658	80.002	20.009	100.671	18.638	158.675	0.505
616.000	375.701	80.001	20.009	100.691	18.719	150.286	0.453
624.000	379.819	80.001	20.010	100.673	18.822	139.659	0.519
632.000	383.912	80.002	20.010	100.678	18.934	128.133	0.509
640.000	388.040	80.002	20.009	100.663	19.080	113.098	0.521
648.000	392.108	80.003	20.009	100.682	19.237	96.940	0.473
656.000	396.208	80.003	20.009	100.681	19.399	80.266	0.526
664.000	400.202	80.002	20.010	100.684	19.559	63.790	0.444
672.000	404.254	80.001	20.010	100.683	19.710	48.269	0.525
680.000	408.110	80.002	20.009	100.663	19.829	35.927	0.527
688.001	412.109	80.002	20.009	100.672	19.931	25.476	0.514
696.000	415.967	80.002	20.009	100.632	19.999	18.485	0.489
704.000	419.947	80.002	20.010	100.605	20.044	13.853	0.472
712.000	423.887	80.000	20.008	100.549	20.076	10.505	0.485
720.000	427.759	80.002	20.009	100.537	20.098	8.212	0.489
728.000	431.831	80.003	20.009	100.518	20.113	6.703	0.526
736.000	435.732	80.001	20.009	100.524	20.120	5.967	0.516
744.000	439.658	80.002	20.009	100.500	20.122	5.748	0.507
752.000	443.588	80.002	20.009	100.482	20.129	5.057	0.515
760.000	447.511	80.003	20.010	100.471	20.133	4.616	0.429
768.000	451.506	80.000	20.008	100.493	20.134	4.528	0.544
776.000	455.447	80.002	20.009	100.475	20.130	4.917	0.542
784.000	459.373	80.001	20.008	100.478	20.134	4.523	0.532
792.000	463.259	80.001	20.009	100.479	20.133	4.673	0.507
800.000	467.285	80.001	20.008	100.501	20.135	4.470	0.470
808.000	471.157	80.002	20.008	100.482	20.133	4.629	0.443
816.000	475.219	80.003	20.009	100.485	20.135	4.450	0.528
824.000	479.179	80.002	20.008	100.486	20.135	4.471	0.497
832.001	483.248	80.003	20.008	100.486	20.131	4.859	0.511
840.000	487.178	80.002	20.009	100.482	20.132	4.800	0.457
848.000	491.244	80.002	20.008	100.474	20.130	4.971	0.503
856.000	495.151	80.003	20.009	100.470	20.132	4.763	0.500
864.000	499.068	80.003	20.008	100.489	20.135	4.464	0.497
872.000	503.063	80.003	20.008	100.495	20.135	4.473	0.477
880.000	506.930	80.002	20.008	100.490	20.134	4.568	0.547
888.000	510.774	80.002	20.008	100.484	20.128	5.137	0.487
896.000	514.634	80.001	20.008	100.475	20.135	4.483	0.506
904.000	518.646	80.002	20.009	100.467	20.132	4.798	0.528
912.000	522.668	80.002	20.008	100.471	20.131	4.902	0.502
920.000	526.734	80.002	20.008	100.491	20.138	4.121	0.523
928.000	530.745	80.003	20.008	100.500	20.139	4.006	0.530
936.000	534.780	80.002	20.010	100.414	20.131	4.866	0.521
944.000	538.798	80.004	20.010	100.413	20.135	4.414	0.487
952.000	542.657	80.002	20.008	100.455	20.131	4.869	0.464
960.000	546.584	80.003	20.009	100.480	20.133	4.690	0.514
968.000	550.491	80.002	20.008	100.489	20.132	4.771	0.470
976.000	554.430	80.001	20.008	100.492	20.126	5.395	0.475
984.000	558.522	80.003	20.008	100.522	20.129	5.024	0.512
992.000	562.505	80.002	20.008	100.500	20.125	5.457	0.499
1000.000	566.594	80.002	20.008	100.498	20.128	5.185	0.532
1008.000	570.517	80.003	20.008	100.536	20.127	5.268	0.480
1016.000	574.496	80.001	20.008	100.484	20.125	5.525	0.518
1024.000	578.442	80.003	20.008	100.499	20.126	5.351	0.508
1032.000	582.461	80.001	20.008	100.494	20.124	5.620	0.495
1040.000	586.407	80.003	20.008	100.467	20.124	5.552	0.468
1048.001	590.246	80.002	20.009	100.481	20.122	5.766	0.464
1056.000	594.151	80.002	20.008	100.514	20.120	5.979	0.487
1064.000	598.138	80.001	20.009	100.478	20.120	6.010	0.528
1072.001	602.126	80.002	20.008	100.492	20.120	5.993	0.493
1080.000	606.215	80.002	20.008	100.492	20.119	6.053	0.485
1088.000	610.328	80.003	20.008	100.487	20.117	6.270	0.541
1096.000	614.344	80.003	20.008	100.496	20.119	6.091	0.532
1104.000	618.398	80.003	20.008	100.511	20.117	6.286	0.507
1112.001	622.491	80.003	20.008	100.493	20.113	6.759	0.547
1120.001	626.443	80.001	20.008	100.527	20.115	6.518	0.455
1128.000	630.389	80.001	20.008	100.510	20.118	6.243	0.486
1136.000	634.289	80.001	20.008	100.479	20.115	6.523	0.527
1144.000	638.215	80.003	20.008	100.525	20.112	6.797	0.491
1152.000	642.208	80.002	20.008	100.501	20.113	6.676	0.489
1160.001	646.164	80.002	20.008	100.515	20.120	6.034	0.459
1168.001	650.147	80.001	20.008	100.524	20.118	6.241	0.480
1176.000	654.060	80.003	20.008	100.562	20.122	5.751	0.514
1184.000	658.019	80.001	20.008	100.555	20.119	6.096	0.501
1192.001	662.024	80.001	20.008	100.492	20.110	7.022	0.528
1200.001	665.958	80.002	20.008	100.445	20.104	7.617	0.517
1208.001	669.770	80.003	20.008	100.468	20.106	7.424	0.456
1216.001	673.678	80.002	20.008	100.544	20.111	6.875	0.465
1224.001	677.677	80.002	20.008	100.518	20.110	7.021	0.454
1232.001	681.939	80.002	20.008	100.513	20.107	7.366	0.510
1240.001	686.228	80.002	20.008	100.508	20.105	7.498	0.527
1248.000	690.534	80.004	20.008	100.524	20.103	7.693	0.524
1256.000	694.842	80.000	20.008	100.524	20.099	8.159	0.536
1264.000	699.038	80.002	20.008	100.517	20.099	8.161	0.506
1272.000	703.196	80.001	20.008	100.508	20.100	8.084	0.562
1280.000	707.393	80.003	20.008	100.511	20.100	8.022	0.506
1288.000	711.569	80.002	20.008	100.522	20.097	8.367	0.542
1296.000	715.735	80.002	20.008	100.528	20.096	8.430	0.518
1304.001	719.830	80.003	20.008	100.540	20.095	8.521	0.525
1312.000	723.872	80.002	20.008	100.511	20.095	8.587	0.528
1320.000	728.019	80.002	20.008	100.521	20.094	8.617	0.472
1328.000	732.180	80.003	20.008	100.528	20.091	8.941	0.523
1336.000	736.350	80.003	20.008	100.551	20.092	8.903	0.527
1344.000	740.484	80.002	20.008	100.540	20.091	9.023	0.482
1348.000	742.496	80.002	20.008	100.520	20.090	9.128	0.495