Folder: Pyrolysis_BESKID/Experiments/TUBS/tga_nonisotherm (part 38)

File: tga_dynamic_n2_dyn60_piece_3mg_r1.txt
index	ts	t	weight	tr
[#]	[°C]	[s]	[mg]	[°C]
643	1.29976e+02	6.43000e+02	2.94200e+00	1.33000e+02
646	1.33016e+02	6.46000e+02	2.94189e+00	1.36000e+02
649	1.36055e+02	6.49000e+02	2.94189e+00	1.39000e+02
652	1.39096e+02	6.52000e+02	2.94197e+00	1.42000e+02
655	1.42122e+02	6.55000e+02	2.94204e+00	1.45000e+02
658	1.45155e+02	6.58000e+02	2.94202e+00	1.48000e+02
661	1.48172e+02	6.61000e+02	2.94189e+00	1.51000e+02
664	1.51189e+02	6.64000e+02	2.94173e+00	1.54000e+02
667	1.54210e+02	6.67000e+02	2.94157e+00	1.57000e+02
670	1.57224e+02	6.70000e+02	2.94143e+00	1.60000e+02
673	1.60227e+02	6.73000e+02	2.94128e+00	1.63000e+02
676	1.63230e+02	6.76000e+02	2.94114e+00	1.66000e+02
679	1.66242e+02	6.79000e+02	2.94102e+00	1.69000e+02
682	1.69254e+02	6.82000e+02	2.94089e+00	1.72000e+02
685	1.72250e+02	6.85000e+02	2.94075e+00	1.75000e+02
688	1.75266e+02	6.88000e+02	2.94056e+00	1.78000e+02
691	1.78246e+02	6.91000e+02	2.94035e+00	1.81000e+02
694	1.81254e+02	6.94000e+02	2.94010e+00	1.84000e+02
697	1.84247e+02	6.97000e+02	2.93980e+00	1.87000e+02
700	1.87251e+02	7.00000e+02	2.93943e+00	1.90000e+02
703	1.90240e+02	7.03000e+02	2.93898e+00	1.93000e+02
706	1.93225e+02	7.06000e+02	2.93837e+00	1.96000e+02
709	1.96224e+02	7.09000e+02	2.93761e+00	1.99000e+02
712	1.99222e+02	7.12000e+02	2.93668e+00	2.02000e+02
715	2.02215e+02	7.15000e+02	2.93561e+00	2.05000e+02
718	2.05185e+02	7.18000e+02	2.93431e+00	2.08000e+02
721	2.08179e+02	7.21000e+02	2.93280e+00	2.11000e+02
724	2.11159e+02	7.24000e+02	2.93113e+00	2.14000e+02
727	2.14150e+02	7.27000e+02	2.92932e+00	2.17000e+02
730	2.17129e+02	7.30000e+02	2.92735e+00	2.20000e+02
733	2.20123e+02	7.33000e+02	2.92528e+00	2.23000e+02
736	2.23137e+02	7.36000e+02	2.92316e+00	2.26000e+02
739	2.26181e+02	7.39000e+02	2.92099e+00	2.29000e+02
742	2.29265e+02	7.42000e+02	2.91874e+00	2.32000e+02
745	2.32381e+02	7.45000e+02	2.91647e+00	2.35000e+02
748	2.35460e+02	7.48000e+02	2.91425e+00	2.38000e+02
751	2.38658e+02	7.51000e+02	2.91203e+00	2.41000e+02
754	2.41767e+02	7.54000e+02	2.90977e+00	2.44000e+02
757	2.44821e+02	7.57000e+02	2.90741e+00	2.47000e+02
760	2.47913e+02	7.60000e+02	2.90499e+00	2.50000e+02
763	2.50944e+02	7.63000e+02	2.90251e+00	2.53000e+02
766	2.53907e+02	7.66000e+02	2.89997e+00	2.56000e+02
769	2.56904e+02	7.69000e+02	2.89737e+00	2.59000e+02
772	2.59943e+02	7.72000e+02	2.89473e+00	2.62000e+02
775	2.62959e+02	7.75000e+02	2.89202e+00	2.65000e+02
778	2.65995e+02	7.78000e+02	2.88920e+00	2.68000e+02
781	2.69024e+02	7.81000e+02	2.88632e+00	2.71000e+02
784	2.72062e+02	7.84000e+02	2.88342e+00	2.74000e+02
787	2.75093e+02	7.87000e+02	2.88049e+00	2.77000e+02
790	2.78113e+02	7.90000e+02	2.87752e+00	2.80000e+02
793	2.81151e+02	7.93000e+02	2.87450e+00	2.83000e+02
796	2.84228e+02	7.96000e+02	2.87143e+00	2.86000e+02
799	2.87276e+02	7.99000e+02	2.86828e+00	2.89000e+02
802	2.90299e+02	8.02000e+02	2.86492e+00	2.92000e+02
805	2.93356e+02	8.05000e+02	2.86132e+00	2.95000e+02
808	2.96342e+02	8.08000e+02	2.85745e+00	2.98000e+02
811	2.99325e+02	8.11000e+02	2.85332e+00	3.01000e+02
814	3.02262e+02	8.14000e+02	2.84882e+00	3.04000e+02
817	3.05212e+02	8.17000e+02	2.84401e+00	3.07000e+02
820	3.08227e+02	8.20000e+02	2.83877e+00	3.10000e+02
823	3.11265e+02	8.23000e+02	2.83310e+00	3.13000e+02
826	3.14325e+02	8.26000e+02	2.82673e+00	3.16000e+02
829	3.17271e+02	8.29000e+02	2.81977e+00	3.19000e+02
832	3.20260e+02	8.32000e+02	2.81226e+00	3.22000e+02
835	3.23360e+02	8.35000e+02	2.80428e+00	3.25000e+02
838	3.26375e+02	8.38000e+02	2.79570e+00	3.28000e+02
841	3.29400e+02	8.41000e+02	2.78678e+00	3.31000e+02
844	3.32418e+02	8.44000e+02	2.77753e+00	3.34000e+02
847	3.35467e+02	8.47000e+02	2.76793e+00	3.37000e+02
850	3.38486e+02	8.50000e+02	2.75758e+00	3.40000e+02
853	3.41512e+02	8.53000e+02	2.74623e+00	3.43000e+02
856	3.44529e+02	8.56000e+02	2.73345e+00	3.46000e+02
859	3.47586e+02	8.59000e+02	2.71907e+00	3.49000e+02
862	3.50659e+02	8.62000e+02	2.70172e+00	3.52000e+02
865	3.53707e+02	8.65000e+02	2.68106e+00	3.55000e+02
868	3.56804e+02	8.68000e+02	2.65611e+00	3.58000e+02
871	3.59798e+02	8.71000e+02	2.62672e+00	3.61000e+02
874	3.62817e+02	8.74000e+02	2.59077e+00	3.64000e+02
877	3.65809e+02	8.77000e+02	2.54813e+00	3.67000e+02
880	3.68785e+02	8.80000e+02	2.49846e+00	3.70000e+02
883	3.71710e+02	8.83000e+02	2.44115e+00	3.73000e+02
886	3.74582e+02	8.86000e+02	2.37326e+00	3.76000e+02
889	3.77500e+02	8.89000e+02	2.29575e+00	3.79000e+02
892	3.80456e+02	8.92000e+02	2.20804e+00	3.82000e+02
895	3.83374e+02	8.95000e+02	2.11151e+00	3.85000e+02
898	3.86251e+02	8.98000e+02	2.00442e+00	3.88000e+02
901	3.89154e+02	9.01000e+02	1.88989e+00	3.91000e+02
904	3.92120e+02	9.04000e+02	1.76975e+00	3.94000e+02
907	3.95026e+02	9.07000e+02	1.64175e+00	3.97000e+02
910	3.97938e+02	9.10000e+02	1.50909e+00	4.00000e+02
913	4.00920e+02	9.13000e+02	1.37470e+00	4.03000e+02
916	4.03873e+02	9.16000e+02	1.23979e+00	4.06000e+02
919	4.06778e+02	9.19000e+02	1.10473e+00	4.09000e+02
922	4.09752e+02	9.22000e+02	9.68907e-01	4.12000e+02
925	4.12745e+02	9.25000e+02	8.31996e-01	4.15000e+02
928	4.15835e+02	9.28000e+02	6.96636e-01	4.18000e+02
931	4.18934e+02	9.31000e+02	5.64780e-01	4.21000e+02
934	4.22088e+02	9.34000e+02	4.45317e-01	4.24000e+02
937	4.25241e+02	9.37000e+02	3.45206e-01	4.27000e+02
940	4.28287e+02	9.40000e+02	2.64379e-01	4.30000e+02
943	4.31356e+02	9.43000e+02	2.00303e-01	4.33000e+02
946	4.34409e+02	9.46000e+02	1.54829e-01	4.36000e+02
949	4.37492e+02	9.49000e+02	1.20796e-01	4.39000e+02
952	4.40592e+02	9.52000e+02	9.60844e-02	4.42000e+02
955	4.43808e+02	9.55000e+02	7.91321e-02	4.45000e+02
958	4.46973e+02	9.58000e+02	6.76790e-02	4.48000e+02
961	4.50182e+02	9.61000e+02	5.95265e-02	4.51000e+02
964	4.53463e+02	9.64000e+02	5.36860e-02	4.54000e+02
967	4.56590e+02	9.67000e+02	4.93300e-02	4.57000e+02
970	4.59529e+02	9.70000e+02	4.65842e-02	4.60000e+02
973	4.62547e+02	9.73000e+02	4.45427e-02	4.63000e+02
976	4.65481e+02	9.76000e+02	4.30538e-02	4.66000e+02
979	4.68484e+02	9.79000e+02	4.19611e-02	4.69000e+02
982	4.71490e+02	9.82000e+02	4.13396e-02	4.72000e+02
985	4.74432e+02	9.85000e+02	4.09314e-02	4.75000e+02
988	4.77332e+02	9.88000e+02	4.06299e-02	4.78000e+02
991	4.80397e+02	9.91000e+02	4.03855e-02	4.81000e+02
994	4.83201e+02	9.94000e+02	4.02028e-02	4.84000e+02
997	4.86056e+02	9.97000e+02	4.00705e-02	4.87000e+02
1000	4.88924e+02	1.00000e+03	3.99682e-02	4.90000e+02
1003	4.91791e+02	1.00300e+03	3.98782e-02	4.93000e+02
1006	4.94737e+02	1.00600e+03	3.98137e-02	4.96000e+02
1009	4.97663e+02	1.00900e+03	3.97563e-02	4.99000e+02
1012	5.00598e+02	1.01200e+03	3.96798e-02	5.02000e+02
1015	5.03523e+02	1.01500e+03	3.96186e-02	5.05000e+02
1018	5.06459e+02	1.01800e+03	3.95911e-02	5.08000e+02
1021	5.09390e+02	1.02100e+03	3.95882e-02	5.11000e+02
1024	5.12375e+02	1.02400e+03	3.95909e-02	5.14000e+02
1027	5.15319e+02	1.02700e+03	3.95883e-02	5.17000e+02
1030	5.18263e+02	1.03000e+03	3.95709e-02	5.20000e+02
1033	5.21216e+02	1.03300e+03	3.95304e-02	5.23000e+02
1036	5.24163e+02	1.03600e+03	3.94550e-02	5.26000e+02
1039	5.27119e+02	1.03900e+03	3.93754e-02	5.29000e+02
1042	5.30059e+02	1.04200e+03	3.93192e-02	5.32000e+02
1045	5.33036e+02	1.04500e+03	3.93020e-02	5.35000e+02
1048	5.35977e+02	1.04800e+03	3.92891e-02	5.38000e+02
1051	5.38868e+02	1.05100e+03	3.92661e-02	5.41000e+02
1054	5.41778e+02	1.05400e+03	3.91972e-02	5.44000e+02
1057	5.44693e+02	1.05700e+03	3.91134e-02	5.47000e+02
1060	5.47649e+02	1.06000e+03	3.90677e-02	5.50000e+02
1063	5.50598e+02	1.06300e+03	3.90479e-02	5.53000e+02
1066	5.53552e+02	1.06600e+03	3.90846e-02	5.56000e+02
1069	5.56489e+02	1.06900e+03	3.91340e-02	5.59000e+02
1072	5.59463e+02	1.07200e+03	3.91259e-02	5.62000e+02
1075	5.62417e+02	1.07500e+03	3.91108e-02	5.65000e+02
1078	5.65387e+02	1.07800e+03	3.90962e-02	5.68000e+02
1081	5.68350e+02	1.08100e+03	3.90828e-02	5.71000e+02
1084	5.71320e+02	1.08400e+03	3.90855e-02	5.74000e+02
1087	5.74292e+02	1.08700e+03	3.90865e-02	5.77000e+02
1090	5.77270e+02	1.09000e+03	3.90588e-02	5.80000e+02
1093	5.80218e+02	1.09300e+03	3.90033e-02	5.83000e+02
1096	5.83180e+02	1.09600e+03	3.89628e-02	5.86000e+02
1099	5.86164e+02	1.09900e+03	3.89152e-02	5.89000e+02
1102	5.89136e+02	1.10200e+03	3.88701e-02	5.92000e+02
1105	5.92088e+02	1.10500e+03	3.88413e-02	5.95000e+02
1108	5.95071e+02	1.10800e+03	3.88107e-02	5.98000e+02
1111	5.98055e+02	1.11100e+03	3.87713e-02	6.01000e+02
1114	6.01027e+02	1.11400e+03	3.87075e-02	6.04000e+02
1117	6.04028e+02	1.11700e+03	3.86472e-02	6.07000e+02
1120	6.06963e+02	1.12000e+03	3.86103e-02	6.10000e+02
1123	6.09934e+02	1.12300e+03	3.85824e-02	6.13000e+02
1126	6.12896e+02	1.12600e+03	3.85844e-02	6.16000e+02
1129	6.15872e+02	1.12900e+03	3.86060e-02	6.19000e+02
1132	6.18826e+02	1.13200e+03	3.85902e-02	6.22000e+02
1135	6.21837e+02	1.13500e+03	3.85538e-02	6.25000e+02
1138	6.24865e+02	1.13800e+03	3.85404e-02	6.28000e+02
1141	6.27884e+02	1.14100e+03	3.85990e-02	6.31000e+02
1144	6.30860e+02	1.14400e+03	3.86772e-02	6.34000e+02
1147	6.33845e+02	1.14700e+03	3.87453e-02	6.37000e+02
1150	6.36794e+02	1.15000e+03	3.87657e-02	6.40000e+02
1153	6.39743e+02	1.15300e+03	3.87262e-02	6.43000e+02
1156	6.42746e+02	1.15600e+03	3.86762e-02	6.46000e+02
1159	6.45777e+02	1.15900e+03	3.86577e-02	6.49000e+02
1162	6.48793e+02	1.16200e+03	3.86898e-02	6.52000e+02
1165	6.51795e+02	1.16500e+03	3.87203e-02	6.55000e+02
1168	6.54781e+02	1.16800e+03	3.87126e-02	6.58000e+02
1171	6.57786e+02	1.17100e+03	3.86891e-02	6.61000e+02
1174	6.60755e+02	1.17400e+03	3.86544e-02	6.64000e+02
1177	6.63729e+02	1.17700e+03	3.86195e-02	6.67000e+02
1180	6.66715e+02	1.18000e+03	3.85791e-02	6.70000e+02
1183	6.69690e+02	1.18300e+03	3.85487e-02	6.73000e+02
1186	6.71454e+02	1.18600e+03	3.85892e-02	6.76000e+02
1189	6.73544e+02	1.18900e+03	3.87257e-02	6.79000e+02
1192	6.75640e+02	1.19200e+03	3.88365e-02	6.82000e+02
1195	6.77551e+02	1.19500e+03	3.88377e-02	6.85000e+02
1198	6.79287e+02	1.19800e+03	3.86926e-02	6.88000e+02
1201	6.80859e+02	1.20100e+03	3.85343e-02	6.91000e+02
1204	6.82310e+02	1.20400e+03	3.84482e-02	6.94000e+02
1207	6.83626e+02	1.20700e+03	3.84555e-02	6.97000e+02
1210	6.84881e+02	1.21000e+03	3.85472e-02	7.00000e+02

File: tga_dynamic_n2_dyn60_piece_3mg_r2.txt
index	ts	t	weight	tr
[#]	[°C]	[s]	[mg]	[°C]
643	1.29792e+02	6.43000e+02	2.96495e+00	1.33000e+02
646	1.32809e+02	6.46000e+02	2.96493e+00	1.36000e+02
649	1.35815e+02	6.49000e+02	2.96493e+00	1.39000e+02
652	1.38797e+02	6.52000e+02	2.96492e+00	1.42000e+02
655	1.41811e+02	6.55000e+02	2.96492e+00	1.45000e+02
658	1.44790e+02	6.58000e+02	2.96492e+00	1.48000e+02
661	1.47798e+02	6.61000e+02	2.96490e+00	1.51000e+02
664	1.50779e+02	6.64000e+02	2.96485e+00	1.54000e+02
667	1.53772e+02	6.67000e+02	2.96476e+00	1.57000e+02
670	1.56767e+02	6.70000e+02	2.96460e+00	1.60000e+02
673	1.59745e+02	6.73000e+02	2.96444e+00	1.63000e+02
676	1.62734e+02	6.76000e+02	2.96428e+00	1.66000e+02
679	1.65708e+02	6.79000e+02	2.96415e+00	1.69000e+02
682	1.68688e+02	6.82000e+02	2.96407e+00	1.72000e+02
685	1.71680e+02	6.85000e+02	2.96398e+00	1.75000e+02
688	1.74661e+02	6.88000e+02	2.96384e+00	1.78000e+02
691	1.77634e+02	6.91000e+02	2.96366e+00	1.81000e+02
694	1.80617e+02	6.94000e+02	2.96345e+00	1.84000e+02
697	1.83618e+02	6.97000e+02	2.96320e+00	1.87000e+02
700	1.86589e+02	7.00000e+02	2.96294e+00	1.90000e+02
703	1.89573e+02	7.03000e+02	2.96263e+00	1.93000e+02
706	1.92557e+02	7.06000e+02	2.96225e+00	1.96000e+02
709	1.95561e+02	7.09000e+02	2.96176e+00	1.99000e+02
712	1.98539e+02	7.12000e+02	2.96113e+00	2.02000e+02
715	2.01526e+02	7.15000e+02	2.96039e+00	2.05000e+02
718	2.04496e+02	7.18000e+02	2.95946e+00	2.08000e+02
721	2.07465e+02	7.21000e+02	2.95839e+00	2.11000e+02
724	2.10470e+02	7.24000e+02	2.95718e+00	2.14000e+02
727	2.13454e+02	7.27000e+02	2.95589e+00	2.17000e+02
730	2.16474e+02	7.30000e+02	2.95447e+00	2.20000e+02
733	2.19478e+02	7.33000e+02	2.95297e+00	2.23000e+02
736	2.22486e+02	7.36000e+02	2.95138e+00	2.26000e+02
739	2.25468e+02	7.39000e+02	2.94971e+00	2.29000e+02
742	2.28489e+02	7.42000e+02	2.94796e+00	2.32000e+02
745	2.31495e+02	7.45000e+02	2.94619e+00	2.35000e+02
748	2.34501e+02	7.48000e+02	2.94444e+00	2.38000e+02
751	2.37508e+02	7.51000e+02	2.94266e+00	2.41000e+02
754	2.40520e+02	7.54000e+02	2.94086e+00	2.44000e+02
757	2.43543e+02	7.57000e+02	2.93903e+00	2.47000e+02
760	2.46573e+02	7.60000e+02	2.93717e+00	2.50000e+02
763	2.49573e+02	7.63000e+02	2.93526e+00	2.53000e+02
766	2.52607e+02	7.66000e+02	2.93325e+00	2.56000e+02
769	2.55657e+02	7.69000e+02	2.93117e+00	2.59000e+02
772	2.58679e+02	7.72000e+02	2.92903e+00	2.62000e+02
775	2.61709e+02	7.75000e+02	2.92684e+00	2.65000e+02
778	2.64792e+02	7.78000e+02	2.92454e+00	2.68000e+02
781	2.67829e+02	7.81000e+02	2.92217e+00	2.71000e+02
784	2.70891e+02	7.84000e+02	2.91974e+00	2.74000e+02
787	2.73977e+02	7.87000e+02	2.91726e+00	2.77000e+02
790	2.77049e+02	7.90000e+02	2.91469e+00	2.80000e+02
793	2.80091e+02	7.93000e+02	2.91202e+00	2.83000e+02
796	2.83157e+02	7.96000e+02	2.90929e+00	2.86000e+02
799	2.86201e+02	7.99000e+02	2.90640e+00	2.89000e+02
802	2.89277e+02	8.02000e+02	2.90311e+00	2.92000e+02
805	2.92356e+02	8.05000e+02	2.89921e+00	2.95000e+02
808	2.95448e+02	8.08000e+02	2.89484e+00	2.98000e+02
811	2.98495e+02	8.11000e+02	2.89029e+00	3.01000e+02
814	3.01525e+02	8.14000e+02	2.88551e+00	3.04000e+02
817	3.04564e+02	8.17000e+02	2.88046e+00	3.07000e+02
820	3.07570e+02	8.20000e+02	2.87512e+00	3.10000e+02
823	3.10547e+02	8.23000e+02	2.86951e+00	3.13000e+02
826	3.13536e+02	8.26000e+02	2.86343e+00	3.16000e+02
829	3.16555e+02	8.29000e+02	2.85686e+00	3.19000e+02
832	3.19587e+02	8.32000e+02	2.84982e+00	3.22000e+02
835	3.22621e+02	8.35000e+02	2.84236e+00	3.25000e+02
838	3.25657e+02	8.38000e+02	2.83437e+00	3.28000e+02
841	3.28706e+02	8.41000e+02	2.82604e+00	3.31000e+02
844	3.31764e+02	8.44000e+02	2.81731e+00	3.34000e+02
847	3.34845e+02	8.47000e+02	2.80821e+00	3.37000e+02
850	3.37968e+02	8.50000e+02	2.79849e+00	3.40000e+02
853	3.41020e+02	8.53000e+02	2.78799e+00	3.43000e+02
856	3.44011e+02	8.56000e+02	2.77625e+00	3.46000e+02
859	3.47045e+02	8.59000e+02	2.76315e+00	3.49000e+02
862	3.49996e+02	8.62000e+02	2.74755e+00	3.52000e+02
865	3.52976e+02	8.65000e+02	2.72907e+00	3.55000e+02
868	3.55967e+02	8.68000e+02	2.70659e+00	3.58000e+02
871	3.58937e+02	8.71000e+02	2.67986e+00	3.61000e+02
874	3.61907e+02	8.74000e+02	2.64612e+00	3.64000e+02
877	3.64868e+02	8.77000e+02	2.60713e+00	3.67000e+02
880	3.67819e+02	8.80000e+02	2.56082e+00	3.70000e+02
883	3.70752e+02	8.83000e+02	2.50687e+00	3.73000e+02
886	3.73717e+02	8.86000e+02	2.44216e+00	3.76000e+02
889	3.76658e+02	8.89000e+02	2.36783e+00	3.79000e+02
892	3.79578e+02	8.92000e+02	2.28393e+00	3.82000e+02
895	3.82509e+02	8.95000e+02	2.19190e+00	3.85000e+02
898	3.85454e+02	8.98000e+02	2.08977e+00	3.88000e+02
901	3.88396e+02	9.01000e+02	1.98013e+00	3.91000e+02
904	3.91408e+02	9.04000e+02	1.86482e+00	3.94000e+02
907	3.94408e+02	9.07000e+02	1.74048e+00	3.97000e+02
910	3.97415e+02	9.10000e+02	1.60942e+00	4.00000e+02
913	4.00467e+02	9.13000e+02	1.47464e+00	4.03000e+02
916	4.03432e+02	9.16000e+02	1.33878e+00	4.06000e+02
919	4.06394e+02	9.19000e+02	1.20241e+00	4.09000e+02
922	4.09382e+02	9.22000e+02	1.06501e+00	4.12000e+02
925	4.12343e+02	9.25000e+02	9.26459e-01	4.15000e+02
928	4.15389e+02	9.28000e+02	7.88235e-01	4.18000e+02
931	4.18388e+02	9.31000e+02	6.52096e-01	4.21000e+02
934	4.21438e+02	9.34000e+02	5.21194e-01	4.24000e+02
937	4.24488e+02	9.37000e+02	4.00601e-01	4.27000e+02
940	4.27546e+02	9.40000e+02	2.97828e-01	4.30000e+02
943	4.30572e+02	9.43000e+02	2.13977e-01	4.33000e+02
946	4.33613e+02	9.46000e+02	1.51784e-01	4.36000e+02
949	4.36603e+02	9.49000e+02	1.06212e-01	4.39000e+02
952	4.39605e+02	9.52000e+02	7.48342e-02	4.42000e+02
955	4.42618e+02	9.55000e+02	5.26322e-02	4.45000e+02
958	4.45682e+02	9.58000e+02	3.76880e-02	4.48000e+02
961	4.48719e+02	9.61000e+02	2.73885e-02	4.51000e+02
964	4.51894e+02	9.64000e+02	2.01542e-02	4.54000e+02
967	4.54954e+02	9.67000e+02	1.48959e-02	4.57000e+02
970	4.57947e+02	9.70000e+02	1.17693e-02	4.60000e+02
973	4.60900e+02	9.73000e+02	9.53607e-03	4.63000e+02
976	4.63875e+02	9.76000e+02	7.92575e-03	4.66000e+02
979	4.66852e+02	9.79000e+02	6.71525e-03	4.69000e+02
982	4.69839e+02	9.82000e+02	5.94018e-03	4.72000e+02
985	4.72844e+02	9.85000e+02	5.38498e-03	4.75000e+02
988	4.75857e+02	9.88000e+02	5.00260e-03	4.78000e+02
991	4.78829e+02	9.91000e+02	4.70105e-03	4.81000e+02
994	4.81823e+02	9.94000e+02	4.47516e-03	4.84000e+02
997	4.84890e+02	9.97000e+02	4.29397e-03	4.87000e+02
1000	4.87866e+02	1.00000e+03	4.15797e-03	4.90000e+02
1003	4.90878e+02	1.00300e+03	4.06219e-03	4.93000e+02
1006	4.93863e+02	1.00600e+03	4.00475e-03	4.96000e+02
1009	4.96834e+02	1.00900e+03	3.93628e-03	4.99000e+02
1012	4.99829e+02	1.01200e+03	3.84123e-03	5.02000e+02
1015	5.02808e+02	1.01500e+03	3.74527e-03	5.05000e+02
1018	5.05777e+02	1.01800e+03	3.65707e-03	5.08000e+02
1021	5.08799e+02	1.02100e+03	3.58445e-03	5.11000e+02
1024	5.11838e+02	1.02400e+03	3.55457e-03	5.14000e+02
1027	5.14672e+02	1.02700e+03	3.56825e-03	5.17000e+02
1030	5.17579e+02	1.03000e+03	3.59447e-03	5.20000e+02
1033	5.20475e+02	1.03300e+03	3.55160e-03	5.23000e+02
1036	5.23429e+02	1.03600e+03	3.47777e-03	5.26000e+02
1039	5.26467e+02	1.03900e+03	3.41337e-03	5.29000e+02
1042	5.29581e+02	1.04200e+03	3.37698e-03	5.32000e+02
1045	5.33112e+02	1.04500e+03	3.36591e-03	5.35000e+02
1048	5.35892e+02	1.04800e+03	3.36613e-03	5.38000e+02
1051	5.38690e+02	1.05100e+03	3.33465e-03	5.41000e+02
1054	5.41644e+02	1.05400e+03	3.25797e-03	5.44000e+02
1057	5.44712e+02	1.05700e+03	3.16970e-03	5.47000e+02
1060	5.47698e+02	1.06000e+03	3.07817e-03	5.50000e+02
1063	5.50816e+02	1.06300e+03	3.02822e-03	5.53000e+02
1066	5.53693e+02	1.06600e+03	3.06808e-03	5.56000e+02
1069	5.56572e+02	1.06900e+03	3.13269e-03	5.59000e+02
1072	5.59529e+02	1.07200e+03	3.15944e-03	5.62000e+02
1075	5.62508e+02	1.07500e+03	3.18073e-03	5.65000e+02
1078	5.65530e+02	1.07800e+03	3.18362e-03	5.68000e+02
1081	5.68695e+02	1.08100e+03	3.17600e-03	5.71000e+02
1084	5.71602e+02	1.08400e+03	3.17805e-03	5.74000e+02
1087	5.74511e+02	1.08700e+03	3.14820e-03	5.77000e+02
1090	5.77440e+02	1.09000e+03	3.08356e-03	5.80000e+02
1093	5.80380e+02	1.09300e+03	3.04796e-03	5.83000e+02
1096	5.83442e+02	1.09600e+03	3.04105e-03	5.86000e+02
1099	5.86421e+02	1.09900e+03	3.04579e-03	5.89000e+02
1102	5.89322e+02	1.10200e+03	3.04181e-03	5.92000e+02
1105	5.92274e+02	1.10500e+03	3.00786e-03	5.95000e+02
1108	5.95251e+02	1.10800e+03	2.97229e-03	5.98000e+02
1111	5.98240e+02	1.11100e+03	2.96937e-03	6.01000e+02
1114	6.00979e+02	1.11400e+03	2.99137e-03	6.04000e+02
1117	6.03844e+02	1.11700e+03	2.97643e-03	6.07000e+02
1120	6.06502e+02	1.12000e+03	2.94013e-03	6.10000e+02
1123	6.09391e+02	1.12300e+03	2.90956e-03	6.13000e+02
1126	6.12188e+02	1.12600e+03	2.89481e-03	6.16000e+02
1129	6.15087e+02	1.12900e+03	2.87233e-03	6.19000e+02
1132	6.17997e+02	1.13200e+03	2.82866e-03	6.22000e+02
1135	6.20956e+02	1.13500e+03	2.78926e-03	6.25000e+02
1138	6.23920e+02	1.13800e+03	2.78998e-03	6.28000e+02
1141	6.26865e+02	1.14100e+03	2.82811e-03	6.31000e+02
1144	6.29815e+02	1.14400e+03	2.85505e-03	6.34000e+02
1147	6.32752e+02	1.14700e+03	2.86731e-03	6.37000e+02
1150	6.35707e+02	1.15000e+03	2.84672e-03	6.40000e+02
1153	6.38692e+02	1.15300e+03	2.82666e-03	6.43000e+02
1156	6.41654e+02	1.15600e+03	2.84023e-03	6.46000e+02
1159	6.44621e+02	1.15900e+03	2.85762e-03	6.49000e+02
1162	6.47602e+02	1.16200e+03	2.86112e-03	6.52000e+02
1165	6.50570e+02	1.16500e+03	2.82405e-03	6.55000e+02
1168	6.53542e+02	1.16800e+03	2.77027e-03	6.58000e+02
1171	6.56531e+02	1.17100e+03	2.75097e-03	6.61000e+02
1174	6.59528e+02	1.17400e+03	2.76686e-03	6.64000e+02
1177	6.62527e+02	1.17700e+03	2.77074e-03	6.67000e+02
1180	6.65519e+02	1.18000e+03	2.78913e-03	6.70000e+02
1183	6.68486e+02	1.18300e+03	2.80464e-03	6.73000e+02
1186	6.70364e+02	1.18600e+03	2.83001e-03	6.76000e+02
1189	6.72480e+02	1.18900e+03	2.89911e-03	6.79000e+02
1192	6.74583e+02	1.19200e+03	2.95754e-03	6.82000e+02
1195	6.76517e+02	1.19500e+03	2.94912e-03	6.85000e+02
1198	6.78285e+02	1.19800e+03	2.87138e-03	6.88000e+02
1201	6.79826e+02	1.20100e+03	2.81561e-03	6.91000e+02
1204	6.81261e+02	1.20400e+03	2.80203e-03	6.94000e+02
1207	6.82584e+02	1.20700e+03	2.81530e-03	6.97000e+02
1210	6.83813e+02	1.21000e+03	2.84158e-03	7.00000e+02