Folder: Pyrolysis_BESKID/Experiments/TUBS/tga_nonisotherm (part 42)

File: tga_dynamic_n2_dyn60_powder_1mg_r3.txt
index	ts	t	weight	tr
[#]	[°C]	[s]	[mg]	[°C]
643	1.29945e+02	6.43000e+02	1.00945e+00	1.33000e+02
647	1.33879e+02	6.47000e+02	1.00929e+00	1.37000e+02
651	1.37816e+02	6.51000e+02	1.00919e+00	1.41000e+02
655	1.41748e+02	6.55000e+02	1.00912e+00	1.45000e+02
659	1.45678e+02	6.59000e+02	1.00897e+00	1.49000e+02
663	1.49611e+02	6.63000e+02	1.00872e+00	1.53000e+02
667	1.53535e+02	6.67000e+02	1.00835e+00	1.57000e+02
671	1.57478e+02	6.71000e+02	1.00793e+00	1.61000e+02
675	1.61394e+02	6.75000e+02	1.00748e+00	1.65000e+02
679	1.65345e+02	6.79000e+02	1.00698e+00	1.69000e+02
683	1.69285e+02	6.83000e+02	1.00640e+00	1.73000e+02
687	1.73232e+02	6.87000e+02	1.00566e+00	1.77000e+02
691	1.77169e+02	6.91000e+02	1.00467e+00	1.81000e+02
695	1.81130e+02	6.95000e+02	1.00347e+00	1.85000e+02
699	1.85093e+02	6.99000e+02	1.00197e+00	1.89000e+02
703	1.89039e+02	7.03000e+02	9.99996e-01	1.93000e+02
707	1.93016e+02	7.07000e+02	9.97400e-01	1.97000e+02
711	1.96983e+02	7.11000e+02	9.94254e-01	2.01000e+02
715	2.00950e+02	7.15000e+02	9.90690e-01	2.05000e+02
719	2.04944e+02	7.19000e+02	9.86901e-01	2.09000e+02
723	2.08921e+02	7.23000e+02	9.83204e-01	2.13000e+02
727	2.12922e+02	7.27000e+02	9.79948e-01	2.17000e+02
731	2.16898e+02	7.31000e+02	9.77351e-01	2.21000e+02
735	2.20900e+02	7.35000e+02	9.75407e-01	2.25000e+02
739	2.24907e+02	7.39000e+02	9.73965e-01	2.29000e+02
743	2.28891e+02	7.43000e+02	9.72813e-01	2.33000e+02
747	2.32906e+02	7.47000e+02	9.71781e-01	2.37000e+02
751	2.36911e+02	7.51000e+02	9.70781e-01	2.41000e+02
755	2.40910e+02	7.55000e+02	9.69819e-01	2.45000e+02
759	2.44934e+02	7.59000e+02	9.68863e-01	2.49000e+02
763	2.48949e+02	7.63000e+02	9.67856e-01	2.53000e+02
767	2.52954e+02	7.67000e+02	9.66841e-01	2.57000e+02
771	2.56952e+02	7.71000e+02	9.65819e-01	2.61000e+02
775	2.60985e+02	7.75000e+02	9.64787e-01	2.65000e+02
779	2.65011e+02	7.79000e+02	9.63816e-01	2.69000e+02
783	2.69038e+02	7.83000e+02	9.62974e-01	2.73000e+02
787	2.73046e+02	7.87000e+02	9.62172e-01	2.77000e+02
791	2.77086e+02	7.91000e+02	9.61290e-01	2.81000e+02
795	2.81107e+02	7.95000e+02	9.60350e-01	2.85000e+02
799	2.85119e+02	7.99000e+02	9.59299e-01	2.89000e+02
803	2.89152e+02	8.03000e+02	9.57974e-01	2.93000e+02
807	2.93179e+02	8.07000e+02	9.56247e-01	2.97000e+02
811	2.97209e+02	8.11000e+02	9.54122e-01	3.01000e+02
815	3.01225e+02	8.15000e+02	9.51562e-01	3.05000e+02
819	3.05254e+02	8.19000e+02	9.48392e-01	3.09000e+02
823	3.09275e+02	8.23000e+02	9.44448e-01	3.13000e+02
827	3.13290e+02	8.27000e+02	9.39677e-01	3.17000e+02
831	3.17320e+02	8.31000e+02	9.34207e-01	3.21000e+02
835	3.21338e+02	8.35000e+02	9.28258e-01	3.25000e+02
839	3.25357e+02	8.39000e+02	9.22040e-01	3.29000e+02
843	3.29373e+02	8.43000e+02	9.15657e-01	3.33000e+02
847	3.33387e+02	8.47000e+02	9.08963e-01	3.37000e+02
851	3.37406e+02	8.51000e+02	9.01510e-01	3.41000e+02
855	3.41408e+02	8.55000e+02	8.92646e-01	3.45000e+02
859	3.45407e+02	8.59000e+02	8.81590e-01	3.49000e+02
863	3.49409e+02	8.63000e+02	8.67586e-01	3.53000e+02
867	3.53375e+02	8.67000e+02	8.49880e-01	3.57000e+02
871	3.57357e+02	8.71000e+02	8.27672e-01	3.61000e+02
875	3.61321e+02	8.75000e+02	8.00430e-01	3.65000e+02
879	3.65285e+02	8.79000e+02	7.67862e-01	3.69000e+02
883	3.69230e+02	8.83000e+02	7.29882e-01	3.73000e+02
887	3.73181e+02	8.87000e+02	6.86618e-01	3.77000e+02
891	3.77118e+02	8.91000e+02	6.38344e-01	3.81000e+02
895	3.81055e+02	8.95000e+02	5.85200e-01	3.85000e+02
899	3.85009e+02	8.99000e+02	5.27416e-01	3.89000e+02
903	3.88969e+02	9.03000e+02	4.65741e-01	3.93000e+02
907	3.92919e+02	9.07000e+02	4.01605e-01	3.97000e+02
911	3.96898e+02	9.11000e+02	3.37178e-01	4.01000e+02
915	4.00870e+02	9.15000e+02	2.74670e-01	4.05000e+02
919	4.04836e+02	9.19000e+02	2.15944e-01	4.09000e+02
923	4.08826e+02	9.23000e+02	1.62441e-01	4.13000e+02
927	4.12802e+02	9.27000e+02	1.15432e-01	4.17000e+02
931	4.16791e+02	9.31000e+02	7.57372e-02	4.21000e+02
935	4.20763e+02	9.35000e+02	4.35130e-02	4.25000e+02
939	4.24746e+02	9.39000e+02	1.83084e-02	4.29000e+02
943	4.28718e+02	9.43000e+02	-7.86579e-04	4.33000e+02
947	4.32691e+02	9.47000e+02	-1.46447e-02	4.37000e+02
951	4.36649e+02	9.51000e+02	-2.42537e-02	4.41000e+02
955	4.40621e+02	9.55000e+02	-3.06677e-02	4.45000e+02
959	4.44572e+02	9.59000e+02	-3.48070e-02	4.49000e+02
963	4.48520e+02	9.63000e+02	-3.74317e-02	4.53000e+02
967	4.52468e+02	9.67000e+02	-3.90899e-02	4.57000e+02
971	4.56408e+02	9.71000e+02	-4.01054e-02	4.61000e+02
975	4.60352e+02	9.75000e+02	-4.06196e-02	4.65000e+02
979	4.64284e+02	9.79000e+02	-4.08720e-02	4.69000e+02
983	4.68233e+02	9.83000e+02	-4.10785e-02	4.73000e+02
987	4.72174e+02	9.87000e+02	-4.12717e-02	4.77000e+02
991	4.76121e+02	9.91000e+02	-4.14215e-02	4.81000e+02
995	4.80057e+02	9.95000e+02	-4.14863e-02	4.85000e+02
999	4.84002e+02	9.99000e+02	-4.15683e-02	4.89000e+02
1003	4.87940e+02	1.00300e+03	-4.16755e-02	4.93000e+02
1007	4.91888e+02	1.00700e+03	-4.17299e-02	4.97000e+02
1011	4.95830e+02	1.01100e+03	-4.17931e-02	5.01000e+02
1015	4.99779e+02	1.01500e+03	-4.18589e-02	5.05000e+02
1019	5.03724e+02	1.01900e+03	-4.18778e-02	5.09000e+02
1023	5.07676e+02	1.02300e+03	-4.18714e-02	5.13000e+02
1027	5.11630e+02	1.02700e+03	-4.18651e-02	5.17000e+02
1031	5.15575e+02	1.03100e+03	-4.19067e-02	5.21000e+02
1035	5.19521e+02	1.03500e+03	-4.19725e-02	5.25000e+02
1039	5.23464e+02	1.03900e+03	-4.19985e-02	5.29000e+02
1043	5.27395e+02	1.04300e+03	-4.19684e-02	5.33000e+02
1047	5.31353e+02	1.04700e+03	-4.19580e-02	5.37000e+02
1051	5.35294e+02	1.05100e+03	-4.20323e-02	5.41000e+02
1055	5.39247e+02	1.05500e+03	-4.21330e-02	5.45000e+02
1059	5.43184e+02	1.05900e+03	-4.21967e-02	5.49000e+02
1063	5.47138e+02	1.06300e+03	-4.21778e-02	5.53000e+02
1067	5.51084e+02	1.06700e+03	-4.20880e-02	5.57000e+02
1071	5.55022e+02	1.07100e+03	-4.20232e-02	5.61000e+02
1075	5.58965e+02	1.07500e+03	-4.20573e-02	5.65000e+02
1079	5.62927e+02	1.07900e+03	-4.21229e-02	5.69000e+02
1083	5.66865e+02	1.08300e+03	-4.21333e-02	5.73000e+02
1087	5.70828e+02	1.08700e+03	-4.21453e-02	5.77000e+02
1091	5.74764e+02	1.09100e+03	-4.21400e-02	5.81000e+02
1095	5.78725e+02	1.09500e+03	-4.21111e-02	5.85000e+02
1099	5.82671e+02	1.09900e+03	-4.21566e-02	5.89000e+02
1103	5.86623e+02	1.10300e+03	-4.22212e-02	5.93000e+02
1107	5.90575e+02	1.10700e+03	-4.22288e-02	5.97000e+02
1111	5.94527e+02	1.11100e+03	-4.22159e-02	6.01000e+02
1115	5.98482e+02	1.11500e+03	-4.22258e-02	6.05000e+02
1119	6.02433e+02	1.11900e+03	-4.22647e-02	6.09000e+02
1123	6.06387e+02	1.12300e+03	-4.22956e-02	6.13000e+02
1127	6.10322e+02	1.12700e+03	-4.23377e-02	6.17000e+02
1131	6.14264e+02	1.13100e+03	-4.23522e-02	6.21000e+02
1135	6.18231e+02	1.13500e+03	-4.22819e-02	6.25000e+02
1139	6.22188e+02	1.13900e+03	-4.22251e-02	6.29000e+02
1143	6.26157e+02	1.14300e+03	-4.23029e-02	6.33000e+02
1147	6.30121e+02	1.14700e+03	-4.24374e-02	6.37000e+02
1151	6.34091e+02	1.15100e+03	-4.24840e-02	6.41000e+02
1155	6.38061e+02	1.15500e+03	-4.24393e-02	6.45000e+02
1159	6.42038e+02	1.15900e+03	-4.23772e-02	6.49000e+02
1163	6.46008e+02	1.16300e+03	-4.23728e-02	6.53000e+02
1167	6.49983e+02	1.16700e+03	-4.23923e-02	6.57000e+02
1171	6.53963e+02	1.17100e+03	-4.23699e-02	6.61000e+02
1175	6.57944e+02	1.17500e+03	-4.23452e-02	6.65000e+02
1179	6.61937e+02	1.17900e+03	-4.23547e-02	6.69000e+02
1183	6.65912e+02	1.18300e+03	-4.23872e-02	6.73000e+02
1187	6.68220e+02	1.18700e+03	-4.23298e-02	6.77000e+02
1191	6.71142e+02	1.19100e+03	-4.21020e-02	6.81000e+02
1195	6.73748e+02	1.19500e+03	-4.19895e-02	6.85000e+02
1199	6.76063e+02	1.19900e+03	-4.21228e-02	6.89000e+02
1203	6.78113e+02	1.20300e+03	-4.22723e-02	6.93000e+02
1207	6.79937e+02	1.20700e+03	-4.23226e-02	6.97000e+02
1210	6.81167e+02	1.21000e+03	-4.23390e-02	7.00000e+02

File: tga_dynamic_n2_dyn60_powder_2mg_r2.txt
index	ts	t	weight	tr
[#]	[°C]	[s]	[mg]	[°C]
643	1.30516e+02	6.43000e+02	2.00881e+00	1.33000e+02
646	1.33545e+02	6.46000e+02	2.00867e+00	1.36000e+02
649	1.36576e+02	6.49000e+02	2.00853e+00	1.39000e+02
652	1.39584e+02	6.52000e+02	2.00839e+00	1.42000e+02
655	1.42598e+02	6.55000e+02	2.00821e+00	1.45000e+02
658	1.45610e+02	6.58000e+02	2.00797e+00	1.48000e+02
661	1.48613e+02	6.61000e+02	2.00762e+00	1.51000e+02
664	1.51615e+02	6.64000e+02	2.00717e+00	1.54000e+02
667	1.54622e+02	6.67000e+02	2.00661e+00	1.57000e+02
670	1.57615e+02	6.70000e+02	2.00591e+00	1.60000e+02
673	1.60619e+02	6.73000e+02	2.00511e+00	1.63000e+02
676	1.63634e+02	6.76000e+02	2.00422e+00	1.66000e+02
679	1.66626e+02	6.79000e+02	2.00323e+00	1.69000e+02
682	1.69615e+02	6.82000e+02	2.00209e+00	1.72000e+02
685	1.72616e+02	6.85000e+02	2.00085e+00	1.75000e+02
688	1.75615e+02	6.88000e+02	1.99948e+00	1.78000e+02
691	1.78606e+02	6.91000e+02	1.99793e+00	1.81000e+02
694	1.81608e+02	6.94000e+02	1.99601e+00	1.84000e+02
697	1.84600e+02	6.97000e+02	1.99367e+00	1.87000e+02
700	1.87617e+02	7.00000e+02	1.99083e+00	1.90000e+02
703	1.90622e+02	7.03000e+02	1.98748e+00	1.93000e+02
706	1.93631e+02	7.06000e+02	1.98337e+00	1.96000e+02
709	1.96632e+02	7.09000e+02	1.97868e+00	1.99000e+02
712	1.99627e+02	7.12000e+02	1.97351e+00	2.02000e+02
715	2.02642e+02	7.15000e+02	1.96807e+00	2.05000e+02
718	2.05660e+02	7.18000e+02	1.96247e+00	2.08000e+02
721	2.08671e+02	7.21000e+02	1.95709e+00	2.11000e+02
724	2.11682e+02	7.24000e+02	1.95217e+00	2.14000e+02
727	2.14690e+02	7.27000e+02	1.94778e+00	2.17000e+02
730	2.17689e+02	7.30000e+02	1.94427e+00	2.20000e+02
733	2.20712e+02	7.33000e+02	1.94143e+00	2.23000e+02
736	2.23740e+02	7.36000e+02	1.93914e+00	2.26000e+02
739	2.26820e+02	7.39000e+02	1.93718e+00	2.29000e+02
742	2.29881e+02	7.42000e+02	1.93557e+00	2.32000e+02
745	2.32901e+02	7.45000e+02	1.93408e+00	2.35000e+02
748	2.35933e+02	7.48000e+02	1.93260e+00	2.38000e+02
751	2.38943e+02	7.51000e+02	1.93113e+00	2.41000e+02
754	2.41974e+02	7.54000e+02	1.92963e+00	2.44000e+02
757	2.45000e+02	7.57000e+02	1.92810e+00	2.47000e+02
760	2.48047e+02	7.60000e+02	1.92654e+00	2.50000e+02
763	2.51070e+02	7.63000e+02	1.92497e+00	2.53000e+02
766	2.54097e+02	7.66000e+02	1.92343e+00	2.56000e+02
769	2.57116e+02	7.69000e+02	1.92194e+00	2.59000e+02
772	2.60202e+02	7.72000e+02	1.92053e+00	2.62000e+02
775	2.63233e+02	7.75000e+02	1.91915e+00	2.65000e+02
778	2.66273e+02	7.78000e+02	1.91779e+00	2.68000e+02
781	2.69314e+02	7.81000e+02	1.91645e+00	2.71000e+02
784	2.72359e+02	7.84000e+02	1.91517e+00	2.74000e+02
787	2.75409e+02	7.87000e+02	1.91390e+00	2.77000e+02
790	2.78460e+02	7.90000e+02	1.91260e+00	2.80000e+02
793	2.81531e+02	7.93000e+02	1.91125e+00	2.83000e+02
796	2.84592e+02	7.96000e+02	1.90977e+00	2.86000e+02
799	2.87670e+02	7.99000e+02	1.90810e+00	2.89000e+02
802	2.90706e+02	8.02000e+02	1.90605e+00	2.92000e+02
805	2.93768e+02	8.05000e+02	1.90359e+00	2.95000e+02
808	2.96804e+02	8.08000e+02	1.90066e+00	2.98000e+02
811	2.99851e+02	8.11000e+02	1.89728e+00	3.01000e+02
814	3.02906e+02	8.14000e+02	1.89316e+00	3.04000e+02
817	3.05931e+02	8.17000e+02	1.88832e+00	3.07000e+02
820	3.08987e+02	8.20000e+02	1.88271e+00	3.10000e+02
823	3.12045e+02	8.23000e+02	1.87642e+00	3.13000e+02
826	3.15074e+02	8.26000e+02	1.86924e+00	3.16000e+02
829	3.18120e+02	8.29000e+02	1.86150e+00	3.19000e+02
832	3.21167e+02	8.32000e+02	1.85326e+00	3.22000e+02
835	3.24227e+02	8.35000e+02	1.84471e+00	3.25000e+02
838	3.27261e+02	8.38000e+02	1.83581e+00	3.28000e+02
841	3.30320e+02	8.41000e+02	1.82671e+00	3.31000e+02
844	3.33362e+02	8.44000e+02	1.81731e+00	3.34000e+02
847	3.36402e+02	8.47000e+02	1.80738e+00	3.37000e+02
850	3.39454e+02	8.50000e+02	1.79625e+00	3.40000e+02
853	3.42549e+02	8.53000e+02	1.78349e+00	3.43000e+02
856	3.45653e+02	8.56000e+02	1.76861e+00	3.46000e+02
859	3.48729e+02	8.59000e+02	1.75144e+00	3.49000e+02
862	3.51791e+02	8.62000e+02	1.73035e+00	3.52000e+02
865	3.54889e+02	8.65000e+02	1.70550e+00	3.55000e+02
868	3.57899e+02	8.68000e+02	1.67636e+00	3.58000e+02
871	3.60955e+02	8.71000e+02	1.64314e+00	3.61000e+02
874	3.63995e+02	8.74000e+02	1.60355e+00	3.64000e+02
877	3.67276e+02	8.77000e+02	1.55865e+00	3.67000e+02
880	3.70545e+02	8.80000e+02	1.50844e+00	3.70000e+02
883	3.73596e+02	8.83000e+02	1.45363e+00	3.73000e+02
886	3.76572e+02	8.86000e+02	1.39214e+00	3.76000e+02
889	3.79505e+02	8.89000e+02	1.32578e+00	3.79000e+02
892	3.82488e+02	8.92000e+02	1.25472e+00	3.82000e+02
895	3.85418e+02	8.95000e+02	1.17960e+00	3.85000e+02
898	3.88333e+02	8.98000e+02	1.09877e+00	3.88000e+02
901	3.91271e+02	9.01000e+02	1.01399e+00	3.91000e+02
904	3.94216e+02	9.04000e+02	9.26067e-01	3.94000e+02
907	3.97235e+02	9.07000e+02	8.36702e-01	3.97000e+02
910	4.00191e+02	9.10000e+02	7.46682e-01	4.00000e+02
913	4.03101e+02	9.13000e+02	6.57936e-01	4.03000e+02
916	4.05996e+02	9.16000e+02	5.71598e-01	4.06000e+02
919	4.08975e+02	9.19000e+02	4.88305e-01	4.09000e+02
922	4.12119e+02	9.22000e+02	4.10884e-01	4.12000e+02
925	4.15246e+02	9.25000e+02	3.38645e-01	4.15000e+02
928	4.18462e+02	9.28000e+02	2.73788e-01	4.18000e+02
931	4.21822e+02	9.31000e+02	2.16244e-01	4.21000e+02
934	4.24969e+02	9.34000e+02	1.68506e-01	4.24000e+02
937	4.28037e+02	9.37000e+02	1.28702e-01	4.27000e+02
940	4.30845e+02	9.40000e+02	9.55169e-02	4.30000e+02
943	4.33969e+02	9.43000e+02	6.74149e-02	4.33000e+02
946	4.37070e+02	9.46000e+02	4.63459e-02	4.36000e+02
949	4.39987e+02	9.49000e+02	2.98818e-02	4.39000e+02
952	4.42888e+02	9.52000e+02	1.73724e-02	4.42000e+02
955	4.45785e+02	9.55000e+02	7.69156e-03	4.45000e+02
958	4.48726e+02	9.58000e+02	1.38696e-03	4.48000e+02
961	4.51644e+02	9.61000e+02	-3.23104e-03	4.51000e+02
964	4.54538e+02	9.64000e+02	-6.56930e-03	4.54000e+02
967	4.57427e+02	9.67000e+02	-9.02024e-03	4.57000e+02
970	4.60357e+02	9.70000e+02	-1.04589e-02	4.60000e+02
973	4.63354e+02	9.73000e+02	-1.14528e-02	4.63000e+02
976	4.66385e+02	9.76000e+02	-1.21675e-02	4.66000e+02
979	4.69417e+02	9.79000e+02	-1.26684e-02	4.69000e+02
982	4.72515e+02	9.82000e+02	-1.29480e-02	4.72000e+02
985	4.75504e+02	9.85000e+02	-1.31586e-02	4.75000e+02
988	4.78409e+02	9.88000e+02	-1.33493e-02	4.78000e+02
991	4.81457e+02	9.91000e+02	-1.35342e-02	4.81000e+02
994	4.84500e+02	9.94000e+02	-1.36864e-02	4.84000e+02
997	4.87447e+02	9.97000e+02	-1.37788e-02	4.87000e+02
1000	4.90263e+02	1.00000e+03	-1.38279e-02	4.90000e+02
1003	4.93079e+02	1.00300e+03	-1.38467e-02	4.93000e+02
1006	4.95963e+02	1.00600e+03	-1.38473e-02	4.96000e+02
1009	4.98949e+02	1.00900e+03	-1.38675e-02	4.99000e+02
1012	5.01923e+02	1.01200e+03	-1.39158e-02	5.02000e+02
1015	5.04850e+02	1.01500e+03	-1.39760e-02	5.05000e+02
1018	5.07779e+02	1.01800e+03	-1.40281e-02	5.08000e+02
1021	5.10777e+02	1.02100e+03	-1.40442e-02	5.11000e+02
1024	5.13912e+02	1.02400e+03	-1.40660e-02	5.14000e+02
1027	5.17052e+02	1.02700e+03	-1.41058e-02	5.17000e+02
1030	5.19970e+02	1.03000e+03	-1.41631e-02	5.20000e+02
1033	5.22915e+02	1.03300e+03	-1.42097e-02	5.23000e+02
1036	5.25878e+02	1.03600e+03	-1.42421e-02	5.26000e+02
1039	5.28863e+02	1.03900e+03	-1.42676e-02	5.29000e+02
1042	5.31741e+02	1.04200e+03	-1.42898e-02	5.32000e+02
1045	5.34635e+02	1.04500e+03	-1.43241e-02	5.35000e+02
1048	5.37442e+02	1.04800e+03	-1.43701e-02	5.38000e+02
1051	5.40302e+02	1.05100e+03	-1.44063e-02	5.41000e+02
1054	5.43271e+02	1.05400e+03	-1.44497e-02	5.44000e+02
1057	5.46119e+02	1.05700e+03	-1.45143e-02	5.47000e+02
1060	5.48901e+02	1.06000e+03	-1.45504e-02	5.50000e+02
1063	5.51792e+02	1.06300e+03	-1.45455e-02	5.53000e+02
1066	5.54679e+02	1.06600e+03	-1.44832e-02	5.56000e+02
1069	5.57579e+02	1.06900e+03	-1.44203e-02	5.59000e+02
1072	5.60911e+02	1.07200e+03	-1.43907e-02	5.62000e+02
1075	5.63377e+02	1.07500e+03	-1.43976e-02	5.65000e+02
1078	5.66031e+02	1.07800e+03	-1.44315e-02	5.68000e+02
1081	5.68792e+02	1.08100e+03	-1.44554e-02	5.71000e+02
1084	5.71641e+02	1.08400e+03	-1.44746e-02	5.74000e+02
1087	5.74534e+02	1.08700e+03	-1.44788e-02	5.77000e+02
1090	5.77469e+02	1.09000e+03	-1.44790e-02	5.80000e+02
1093	5.80450e+02	1.09300e+03	-1.44902e-02	5.83000e+02
1096	5.83487e+02	1.09600e+03	-1.44893e-02	5.86000e+02
1099	5.86398e+02	1.09900e+03	-1.44818e-02	5.89000e+02
1102	5.89357e+02	1.10200e+03	-1.44813e-02	5.92000e+02
1105	5.92046e+02	1.10500e+03	-1.44989e-02	5.95000e+02
1108	5.94966e+02	1.10800e+03	-1.45186e-02	5.98000e+02
1111	5.97888e+02	1.11100e+03	-1.45297e-02	6.01000e+02
1114	6.00624e+02	1.11400e+03	-1.45465e-02	6.04000e+02
1117	6.03625e+02	1.11700e+03	-1.45776e-02	6.07000e+02
1120	6.06573e+02	1.12000e+03	-1.45948e-02	6.10000e+02
1123	6.09711e+02	1.12300e+03	-1.45970e-02	6.13000e+02
1126	6.12766e+02	1.12600e+03	-1.45917e-02	6.16000e+02
1129	6.15809e+02	1.12900e+03	-1.45951e-02	6.19000e+02
1132	6.18835e+02	1.13200e+03	-1.45905e-02	6.22000e+02
1135	6.21766e+02	1.13500e+03	-1.46007e-02	6.25000e+02
1138	6.24816e+02	1.13800e+03	-1.46127e-02	6.28000e+02
1141	6.27867e+02	1.14100e+03	-1.45974e-02	6.31000e+02
1144	6.30888e+02	1.14400e+03	-1.45986e-02	6.34000e+02
1147	6.33981e+02	1.14700e+03	-1.46259e-02	6.37000e+02
1150	6.37009e+02	1.15000e+03	-1.46374e-02	6.40000e+02
1153	6.39978e+02	1.15300e+03	-1.45972e-02	6.43000e+02
1156	6.43025e+02	1.15600e+03	-1.45832e-02	6.46000e+02
1159	6.46096e+02	1.15900e+03	-1.45839e-02	6.49000e+02
1162	6.49092e+02	1.16200e+03	-1.46123e-02	6.52000e+02
1165	6.52169e+02	1.16500e+03	-1.46394e-02	6.55000e+02
1168	6.55002e+02	1.16800e+03	-1.46333e-02	6.58000e+02
1171	6.57675e+02	1.17100e+03	-1.46187e-02	6.61000e+02
1174	6.60515e+02	1.17400e+03	-1.46002e-02	6.64000e+02
1177	6.63383e+02	1.17700e+03	-1.45990e-02	6.67000e+02
1180	6.66240e+02	1.18000e+03	-1.46399e-02	6.70000e+02
1183	6.69186e+02	1.18300e+03	-1.46852e-02	6.73000e+02
1186	6.70908e+02	1.18600e+03	-1.46515e-02	6.76000e+02
1189	6.72962e+02	1.18900e+03	-1.44739e-02	6.79000e+02
1192	6.75044e+02	1.19200e+03	-1.43136e-02	6.82000e+02
1195	6.76868e+02	1.19500e+03	-1.42509e-02	6.85000e+02
1198	6.78569e+02	1.19800e+03	-1.43337e-02	6.88000e+02
1201	6.80137e+02	1.20100e+03	-1.44364e-02	6.91000e+02
1204	6.81536e+02	1.20400e+03	-1.45147e-02	6.94000e+02
1207	6.82881e+02	1.20700e+03	-1.45704e-02	6.97000e+02
1210	6.84146e+02	1.21000e+03	-1.45877e-02	7.00000e+02