Folder: Pyrolysis_BESKID/Experiments/TUBS/tga_nonisotherm (part 53)

File: tga_dynamic_n2high60_dyn30_piece_3mg_r2.txt
Index	Ts	t	Weight	Tr
[#]	[°C]	[s]	[mg]	[°C]
682	1.30241e+02	6.82000e+02	2.96644	131.0
692	1.35245e+02	6.92000e+02	2.96631	136.0
702	1.40264e+02	7.02000e+02	2.96626	141.0
712	1.45296e+02	7.12000e+02	2.96586	146.0
722	1.50319e+02	7.22000e+02	2.96561	151.0
732	1.55360e+02	7.32000e+02	2.96534	156.0
742	1.60389e+02	7.42000e+02	2.96485	161.0
752	1.65443e+02	7.52000e+02	2.96456	166.0
762	1.70498e+02	7.62000e+02	2.96396	171.0
772	1.75537e+02	7.72000e+02	2.96349	176.0
782	1.80601e+02	7.82000e+02	2.96273	181.0
792	1.85668e+02	7.92000e+02	2.96166	186.0
802	1.90750e+02	8.02000e+02	2.96021	191.0
812	1.95822e+02	8.12000e+02	2.95835	196.0
822	2.00885e+02	8.22000e+02	2.95593	201.0
832	2.05974e+02	8.32000e+02	2.95285	206.0
842	2.11051e+02	8.42000e+02	2.94944	211.0
852	2.16086e+02	8.52000e+02	2.94614	216.0
862	2.21142e+02	8.62000e+02	2.9426	221.0
872	2.26186e+02	8.72000e+02	2.93895	226.0
882	2.31249e+02	8.82000e+02	2.93537	231.0
892	2.36336e+02	8.92000e+02	2.93159	236.0
902	2.41400e+02	9.02000e+02	2.92764	241.0
912	2.46442e+02	9.12000e+02	2.92372	246.0
922	2.51487e+02	9.22000e+02	2.91986	251.0
932	2.56560e+02	9.32000e+02	2.91557	256.0
942	2.61631e+02	9.42000e+02	2.91093	261.0
952	2.66665e+02	9.52000e+02	2.9061	266.0
962	2.71729e+02	9.62000e+02	2.90166	271.0
972	2.76860e+02	9.72000e+02	2.89665	276.0
982	2.81925e+02	9.82000e+02	2.89021	281.0
992	2.86935e+02	9.92000e+02	2.88314	286.0
1002	2.92013e+02	1.00200e+03	2.87582	291.0
1012	2.97221e+02	1.01200e+03	2.86788	296.0
1022	3.02410e+02	1.02200e+03	2.85863	301.0
1032	3.07511e+02	1.03200e+03	2.84772	306.0
1042	3.12704e+02	1.04200e+03	2.83398	311.0
1052	3.17608e+02	1.05200e+03	2.81843	316.0
1062	3.22511e+02	1.06200e+03	2.8029	321.0
1072	3.27441e+02	1.07200e+03	2.78634	326.0
1082	3.32503e+02	1.08200e+03	2.76807	331.0
1092	3.37524e+02	1.09200e+03	2.74644	336.0
1102	3.42544e+02	1.10200e+03	2.7193	341.0
1112	3.47640e+02	1.11200e+03	2.68266	346.0
1122	3.52578e+02	1.12200e+03	2.6255	351.0
1132	3.57519e+02	1.13200e+03	2.55216	356.0
1142	3.62409e+02	1.14200e+03	2.45273	361.0
1152	3.67282e+02	1.15200e+03	2.31912	366.0
1162	3.72158e+02	1.16200e+03	2.14926	371.0
1172	3.77086e+02	1.17200e+03	1.94629	376.0
1182	3.82336e+02	1.18200e+03	1.71526	381.0
1192	3.87781e+02	1.19200e+03	1.46685	386.0
1202	3.92810e+02	1.20200e+03	1.21596	391.0
1212	3.97752e+02	1.21200e+03	0.964424	396.0
1222	4.02814e+02	1.22200e+03	0.706825	401.0
1232	4.07887e+02	1.23200e+03	0.47226	406.0
1242	4.13085e+02	1.24200e+03	0.2949	411.0
1252	4.18057e+02	1.25200e+03	0.178577	416.0
1262	4.22915e+02	1.26200e+03	0.10757	421.0
1272	4.27774e+02	1.27200e+03	0.0680724	426.0
1282	4.32706e+02	1.28200e+03	0.0468772	431.0
1292	4.37626e+02	1.29200e+03	0.0352987	436.0
1302	4.42523e+02	1.30200e+03	0.0288008	441.0
1312	4.47395e+02	1.31200e+03	0.0249074	446.0
1322	4.52262e+02	1.32200e+03	0.022198	451.0
1332	4.57059e+02	1.33200e+03	0.0210189	456.0
1342	4.61898e+02	1.34200e+03	0.0204033	461.0
1352	4.66717e+02	1.35200e+03	0.0201469	466.0
1362	4.71616e+02	1.36200e+03	0.0202562	471.0
1372	4.76564e+02	1.37200e+03	0.0198471	476.0
1382	4.81498e+02	1.38200e+03	0.0196079	481.0
1392	4.86413e+02	1.39200e+03	0.0194434	486.0
1402	4.91337e+02	1.40200e+03	0.0193281	491.0
1412	4.96398e+02	1.41200e+03	0.0194009	496.0
1422	5.01354e+02	1.42200e+03	0.0190432	501.0
1432	5.06337e+02	1.43200e+03	0.0189382	506.0
1442	5.11228e+02	1.44200e+03	0.0190435	511.0
1452	5.16287e+02	1.45200e+03	0.0192065	516.0
1462	5.21378e+02	1.46200e+03	0.019061	521.0
1472	5.26409e+02	1.47200e+03	0.0190997	526.0
1482	5.32630e+02	1.48200e+03	0.018908	531.0
1492	5.36708e+02	1.49200e+03	0.0190607	536.0
1502	5.41590e+02	1.50200e+03	0.0188883	541.0
1512	5.46435e+02	1.51200e+03	0.0188724	546.0
1522	5.51573e+02	1.52200e+03	0.0188682	551.0
1532	5.56271e+02	1.53200e+03	0.0189313	556.0
1542	5.61014e+02	1.54200e+03	0.0189888	561.0
1552	5.65904e+02	1.55200e+03	0.0188363	566.0
1562	5.70742e+02	1.56200e+03	0.0188792	571.0
1572	5.75570e+02	1.57200e+03	0.0188859	576.0
1582	5.80415e+02	1.58200e+03	0.0189507	581.0
1592	5.85386e+02	1.59200e+03	0.0188681	586.0
1602	5.90259e+02	1.60200e+03	0.0190391	591.0
1612	5.95301e+02	1.61200e+03	0.0191107	596.0
1622	6.00343e+02	1.62200e+03	0.0191304	601.0
1632	6.05354e+02	1.63200e+03	0.019108	606.0
1642	6.10323e+02	1.64200e+03	0.0188886	611.0
1652	6.15033e+02	1.65200e+03	0.0188826	616.0
1662	6.20015e+02	1.66200e+03	0.0189435	621.0
1672	6.25274e+02	1.67200e+03	0.0188691	626.0
1682	6.29969e+02	1.68200e+03	0.0187656	631.0
1692	6.34847e+02	1.69200e+03	0.018861	636.0
1702	6.39724e+02	1.70200e+03	0.0188985	641.0
1712	6.44656e+02	1.71200e+03	0.018923	646.0
1722	6.49550e+02	1.72200e+03	0.0189407	651.0
1732	6.54487e+02	1.73200e+03	0.0186494	656.0
1742	6.59429e+02	1.74200e+03	0.0184653	661.0
1752	6.64409e+02	1.75200e+03	0.0186441	666.0
1762	6.69381e+02	1.76200e+03	0.0186787	671.0
1772	6.74312e+02	1.77200e+03	0.0185618	676.0
1782	6.79287e+02	1.78200e+03	0.0184367	681.0
1792	6.84283e+02	1.79200e+03	0.0183707	686.0
1802	6.87655e+02	1.80200e+03	0.0187055	691.0
1812	6.90448e+02	1.81200e+03	0.0185003	696.0
1822	6.92504e+02	1.82200e+03	0.0184338	700.0
1832	6.94070e+02	1.83200e+03	0.0183526	700.0
1842	6.95202e+02	1.84200e+03	0.0183404	700.0
1852	6.96068e+02	1.85200e+03	0.0184096	700.0
1862	6.96742e+02	1.86200e+03	0.0183291	700.0
1872	6.97260e+02	1.87200e+03	0.0182182	700.0
1882	6.97616e+02	1.88200e+03	0.018225	700.0
1892	6.97950e+02	1.89200e+03	0.0183442	700.0
1902	6.98171e+02	1.90200e+03	0.0181396	700.0
1912	6.98356e+02	1.91200e+03	0.0182542	700.0
1922	6.98509e+02	1.92200e+03	0.0182961	700.0
1932	6.98596e+02	1.93200e+03	0.018373	700.0
1942	6.98684e+02	1.94200e+03	0.0183514	700.0
1952	6.98755e+02	1.95200e+03	0.0182115	700.0
1962	6.98812e+02	1.96200e+03	0.018001	700.0
1972	6.98848e+02	1.97200e+03	0.0182085	700.0
1982	6.98868e+02	1.98200e+03	0.0181424	700.0
1992	6.98900e+02	1.99200e+03	0.0180453	700.0
2002	6.98925e+02	2.00200e+03	0.0179784	700.0
2012	6.98936e+02	2.01200e+03	0.017908	700.0
2022	6.98946e+02	2.02200e+03	0.0179959	700.0
2032	6.98952e+02	2.03200e+03	0.0181105	700.0
2042	6.98960e+02	2.04200e+03	0.0180124	700.0
2052	6.98969e+02	2.05200e+03	0.0181441	700.0
2062	6.98968e+02	2.06200e+03	0.0180289	700.0
2072	6.98959e+02	2.07200e+03	0.0181818	700.0
2082	6.98964e+02	2.08200e+03	0.0180921	700.0
2092	6.98953e+02	2.09200e+03	0.0179259	700.0
2102	6.98949e+02	2.10200e+03	0.0179005	700.0
2112	6.98944e+02	2.11200e+03	0.0179953	700.0
2122	6.98934e+02	2.12200e+03	0.0179202	700.0
2132	6.98928e+02	2.13200e+03	0.017878	700.0
2142	6.98919e+02	2.14200e+03	0.0177254	700.0
2152	6.98900e+02	2.15200e+03	0.0176179	700.0
2162	6.98896e+02	2.16200e+03	0.0178088	700.0
2172	6.98890e+02	2.17200e+03	0.0179584	700.0
2182	6.98867e+02	2.18200e+03	0.0178566	700.0
2192	6.98866e+02	2.19200e+03	0.0177569	700.0
2202	6.98860e+02	2.20200e+03	0.0178986	700.0
2212	6.98858e+02	2.21200e+03	0.0179069	700.0
2222	6.98844e+02	2.22200e+03	0.0178228	700.0
2232	6.98828e+02	2.23200e+03	0.0177471	700.0
2242	6.98818e+02	2.24200e+03	0.0176091	700.0
2252	6.98803e+02	2.25200e+03	0.0175807	700.0
2262	6.98800e+02	2.26200e+03	0.0175945	700.0
2272	6.98794e+02	2.27200e+03	0.0177022	700.0
2282	6.98784e+02	2.28200e+03	0.0177321	700.0
2292	6.98782e+02	2.29200e+03	0.0176445	700.0
2302	6.98777e+02	2.30200e+03	0.0176041	700.0
2312	6.98775e+02	2.31200e+03	0.0178117	700.0
2322	6.98776e+02	2.32200e+03	0.0177948	700.0
2332	6.98759e+02	2.33200e+03	0.0177425	700.0
2342	6.98746e+02	2.34200e+03	0.017655	700.0
2352	6.98756e+02	2.35200e+03	0.0176298	700.0
2362	6.98750e+02	2.36200e+03	0.0175658	700.0
2372	6.98747e+02	2.37200e+03	0.0175359	700.0
2382	6.98736e+02	2.38200e+03	0.0176391	700.0
2392	6.98728e+02	2.39200e+03	0.0174896	700.0
2402	6.98721e+02	2.40200e+03	0.0174056	700.0
2412	6.98726e+02	2.41200e+03	0.0172781	700.0
2422	6.98717e+02	2.42200e+03	0.0175101	700.0
2432	6.98709e+02	2.43200e+03	0.017629	700.0
2442	6.98709e+02	2.44200e+03	0.0175229	700.0
2452	6.98711e+02	2.45200e+03	0.0174615	700.0
2462	6.98705e+02	2.46200e+03	0.0175308	700.0
2472	6.98703e+02	2.47200e+03	0.0175417	700.0
2482	6.98698e+02	2.48200e+03	0.0175242	700.0
2492	6.98704e+02	2.49200e+03	0.0177329	700.0
2502	6.98693e+02	2.50200e+03	0.0176116	700.0
2512	6.98694e+02	2.51200e+03	0.0173875	700.0
2522	6.98688e+02	2.52200e+03	0.017569	700.0
2532	6.98674e+02	2.53200e+03	0.0175045	700.0
2542	6.98672e+02	2.54200e+03	0.0174526	700.0
2552	6.98682e+02	2.55200e+03	0.0175418	700.0
2562	6.98664e+02	2.56200e+03	0.0174493	700.0
2572	6.98664e+02	2.57200e+03	0.0174808	700.0
2582	6.98655e+02	2.58200e+03	0.0174655	700.0
2592	6.98650e+02	2.59200e+03	0.017451	700.0
2602	6.98654e+02	2.60200e+03	0.0174988	700.0
2612	6.98639e+02	2.61200e+03	0.0173163	700.0
2622	6.98642e+02	2.62200e+03	0.0173587	700.0
2632	6.98642e+02	2.63200e+03	0.017338	700.0
2642	6.98640e+02	2.64200e+03	0.0174645	700.0
2652	6.98642e+02	2.65200e+03	0.0172959	700.0
2662	6.98643e+02	2.66200e+03	0.0173636	700.0
2672	6.98650e+02	2.67200e+03	0.017324	700.0
2682	6.98639e+02	2.68200e+03	0.0174415	700.0
2692	6.98638e+02	2.69200e+03	0.0175462	700.0
2702	6.98635e+02	2.70200e+03	0.0172752	700.0
2712	6.98634e+02	2.71200e+03	0.0173468	700.0
2720	6.98633e+02	2.72000e+03	0.0173429	700.0

File: tga_dynamic_n2high60_dyn30_piece_3mg_r3.txt
Index	Ts	t	Weight	Tr
[#]	[°C]	[s]	[mg]	[°C]
683	1.30484e+02	6.83000e+02	3.04453	131.5
693	1.35486e+02	6.93000e+02	3.04447	136.5
703	1.40482e+02	7.03000e+02	3.04437	141.5
713	1.45493e+02	7.13000e+02	3.04418	146.5
723	1.50511e+02	7.23000e+02	3.04393	151.5
733	1.55531e+02	7.33000e+02	3.04361	156.5
743	1.60547e+02	7.43000e+02	3.0432	161.5
753	1.65581e+02	7.53000e+02	3.04297	166.5
763	1.70637e+02	7.63000e+02	3.04229	171.5
773	1.75676e+02	7.73000e+02	3.04182	176.5
783	1.80737e+02	7.83000e+02	3.04114	181.5
793	1.85782e+02	7.93000e+02	3.03988	186.5
803	1.90848e+02	8.03000e+02	3.03835	191.5
813	1.95919e+02	8.13000e+02	3.03633	196.5
823	2.00987e+02	8.23000e+02	3.0335	201.5
833	2.06067e+02	8.33000e+02	3.02982	206.5
843	2.11111e+02	8.43000e+02	3.02594	211.5
853	2.16147e+02	8.53000e+02	3.02203	216.5
863	2.21194e+02	8.63000e+02	3.01787	221.5
873	2.26255e+02	8.73000e+02	3.0136	226.5
883	2.31308e+02	8.83000e+02	3.00903	231.5
893	2.36383e+02	8.93000e+02	3.00432	236.5
903	2.41443e+02	9.03000e+02	2.99938	241.5
913	2.46525e+02	9.13000e+02	2.99441	246.5
923	2.51613e+02	9.23000e+02	2.98954	251.5
933	2.56733e+02	9.33000e+02	2.98431	256.5
943	2.61866e+02	9.43000e+02	2.97857	261.5
953	2.66989e+02	9.53000e+02	2.97305	266.5
963	2.72382e+02	9.63000e+02	2.96769	271.5
973	2.77499e+02	9.73000e+02	2.96197	276.5
983	2.82729e+02	9.83000e+02	2.95601	281.5
993	2.87880e+02	9.93000e+02	2.94942	286.5
1003	2.93088e+02	1.00300e+03	2.9424	291.5
1013	2.98195e+02	1.01300e+03	2.93437	296.5
1023	3.03284e+02	1.02300e+03	2.92483	301.5
1033	3.08343e+02	1.03300e+03	2.91364	306.5
1043	3.13126e+02	1.04300e+03	2.90081	311.5
1053	3.18394e+02	1.05300e+03	2.88607	316.5
1063	3.23416e+02	1.06300e+03	2.87058	321.5
1073	3.28467e+02	1.07300e+03	2.85415	326.5
1083	3.33534e+02	1.08300e+03	2.83593	331.5
1093	3.38567e+02	1.09300e+03	2.81428	336.5
1103	3.43499e+02	1.10300e+03	2.78654	341.5
1113	3.48518e+02	1.11300e+03	2.74956	346.5
1123	3.53503e+02	1.12300e+03	2.69865	351.5
1133	3.58477e+02	1.13300e+03	2.62732	356.5
1143	3.63324e+02	1.14300e+03	2.52451	361.5
1153	3.68298e+02	1.15300e+03	2.37219	366.5
1163	3.73055e+02	1.16300e+03	2.1811	371.5
1173	3.77835e+02	1.17300e+03	1.95282	376.5
1183	3.82660e+02	1.18300e+03	1.69653	381.5
1193	3.87541e+02	1.19300e+03	1.43212	386.5
1203	3.92583e+02	1.20300e+03	1.17407	391.5
1213	3.97512e+02	1.21300e+03	0.921003	396.5
1223	4.02568e+02	1.22300e+03	0.665504	401.5
1233	4.07721e+02	1.23300e+03	0.434938	406.5
1243	4.12811e+02	1.24300e+03	0.264022	411.5
1253	4.17866e+02	1.25300e+03	0.153956	416.5
1263	4.23036e+02	1.26300e+03	0.0865552	421.5
1273	4.27989e+02	1.27300e+03	0.0494657	426.5
1283	4.32986e+02	1.28300e+03	0.0293784	431.5
1293	4.37948e+02	1.29300e+03	0.0189357	436.5
1303	4.42949e+02	1.30300e+03	0.0130005	441.5
1313	4.47843e+02	1.31300e+03	0.00943409	446.5
1323	4.52808e+02	1.32300e+03	0.00729641	451.5
1333	4.57606e+02	1.33300e+03	0.00619569	456.5
1343	4.62420e+02	1.34300e+03	0.00599522	461.5
1353	4.67282e+02	1.35300e+03	0.00561865	466.5
1363	4.72083e+02	1.36300e+03	0.00577845	471.5
1373	4.76983e+02	1.37300e+03	0.00566836	476.5
1383	4.81890e+02	1.38300e+03	0.00542892	481.5
1393	4.86857e+02	1.39300e+03	0.00539664	486.5
1403	4.91842e+02	1.40300e+03	0.00513496	491.5
1413	4.96793e+02	1.41300e+03	0.00518111	496.5
1423	5.01749e+02	1.42300e+03	0.00511645	501.5
1433	5.06838e+02	1.43300e+03	0.00501645	506.5
1443	5.12047e+02	1.44300e+03	0.00492499	511.5
1453	5.17398e+02	1.45300e+03	0.00507816	516.5
1463	5.22466e+02	1.46300e+03	0.00496342	521.5
1473	5.26663e+02	1.47300e+03	0.00502762	526.5
1483	5.31334e+02	1.48300e+03	0.00505435	531.5
1493	5.36213e+02	1.49300e+03	0.00507159	536.5
1503	5.41054e+02	1.50300e+03	0.00489551	541.5
1513	5.45950e+02	1.51300e+03	0.00490967	546.5
1523	5.50865e+02	1.52300e+03	0.0047831	551.5
1533	5.55736e+02	1.53300e+03	0.00482903	556.5
1543	5.60572e+02	1.54300e+03	0.00506748	561.5
1553	5.65426e+02	1.55300e+03	0.00493235	566.5
1563	5.70289e+02	1.56300e+03	0.00495419	571.5
1573	5.75197e+02	1.57300e+03	0.00498491	576.5
1583	5.80225e+02	1.58300e+03	0.00486112	581.5
1593	5.85289e+02	1.59300e+03	0.00483393	586.5
1603	5.90310e+02	1.60300e+03	0.0050229	591.5
1613	5.95233e+02	1.61300e+03	0.00513823	596.5
1623	6.00172e+02	1.62300e+03	0.00526321	601.5
1633	6.05118e+02	1.63300e+03	0.00504797	606.5
1643	6.10271e+02	1.64300e+03	0.00497085	611.5
1653	6.15266e+02	1.65300e+03	0.0049306	616.5
1663	6.20289e+02	1.66300e+03	0.00496139	621.5
1673	6.25412e+02	1.67300e+03	0.00513795	626.5
1683	6.30436e+02	1.68300e+03	0.00496376	631.5
1693	6.35473e+02	1.69300e+03	0.00498689	636.5
1703	6.40200e+02	1.70300e+03	0.00515973	641.5
1713	6.45022e+02	1.71300e+03	0.00521135	646.5
1723	6.49955e+02	1.72300e+03	0.00517016	651.5
1733	6.54890e+02	1.73300e+03	0.00497597	656.5
1743	6.59836e+02	1.74300e+03	0.00490843	661.5
1753	6.64692e+02	1.75300e+03	0.00503356	666.5
1763	6.69610e+02	1.76300e+03	0.00510009	671.5
1773	6.74577e+02	1.77300e+03	0.00505437	676.5
1783	6.79561e+02	1.78300e+03	0.00491161	681.5
1793	6.84618e+02	1.79300e+03	0.00497777	686.5
1803	6.87955e+02	1.80300e+03	0.00528737	691.5
1813	6.90793e+02	1.81300e+03	0.00529929	696.5
1823	6.92870e+02	1.82300e+03	0.00494523	700.0
1833	6.94307e+02	1.83300e+03	0.00486452	700.0
1843	6.95424e+02	1.84300e+03	0.00488183	700.0
1853	6.96264e+02	1.85300e+03	0.00507836	700.0
1863	6.96933e+02	1.86300e+03	0.00496507	700.0
1873	6.97472e+02	1.87300e+03	0.00478767	700.0
1883	6.97852e+02	1.88300e+03	0.00480397	700.0
1893	6.98157e+02	1.89300e+03	0.0050005	700.0
1903	6.98388e+02	1.90300e+03	0.00474457	700.0
1913	6.98554e+02	1.91300e+03	0.00488386	700.0
1923	6.98695e+02	1.92300e+03	0.00482529	700.0
1933	6.98810e+02	1.93300e+03	0.00510493	700.0
1943	6.98892e+02	1.94300e+03	0.00515556	700.0
1953	6.98951e+02	1.95300e+03	0.00491735	700.0
1963	6.99007e+02	1.96300e+03	0.00481607	700.0
1973	6.99042e+02	1.97300e+03	0.00489556	700.0
1983	6.99067e+02	1.98300e+03	0.00475413	700.0
1993	6.99097e+02	1.99300e+03	0.00473637	700.0
2003	6.99111e+02	2.00300e+03	0.00483731	700.0
2013	6.99125e+02	2.01300e+03	0.00476208	700.0
2023	6.99139e+02	2.02300e+03	0.00489189	700.0
2033	6.99143e+02	2.03300e+03	0.00488885	700.0
2043	6.99128e+02	2.04300e+03	0.00490801	700.0
2053	6.99129e+02	2.05300e+03	0.00486557	700.0
2063	6.99124e+02	2.06300e+03	0.00464385	700.0
2073	6.99107e+02	2.07300e+03	0.00468291	700.0
2083	6.99100e+02	2.08300e+03	0.00472572	700.0
2093	6.99086e+02	2.09300e+03	0.00459905	700.0
2103	6.99075e+02	2.10300e+03	0.00454427	700.0
2113	6.99072e+02	2.11300e+03	0.00480374	700.0
2123	6.99052e+02	2.12300e+03	0.00476977	700.0
2133	6.99050e+02	2.13300e+03	0.0046131	700.0
2143	6.99035e+02	2.14300e+03	0.00453568	700.0
2153	6.99030e+02	2.15300e+03	0.00462019	700.0
2163	6.99025e+02	2.16300e+03	0.00474755	700.0
2173	6.99016e+02	2.17300e+03	0.0048562	700.0
2183	6.99011e+02	2.18300e+03	0.00464238	700.0
2193	6.98997e+02	2.19300e+03	0.00458097	700.0
2203	6.98984e+02	2.20300e+03	0.00467968	700.0
2213	6.98982e+02	2.21300e+03	0.00466915	700.0
2223	6.98982e+02	2.22300e+03	0.00454208	700.0
2233	6.98960e+02	2.23300e+03	0.00446289	700.0
2243	6.98950e+02	2.24300e+03	0.00438928	700.0
2253	6.98937e+02	2.25300e+03	0.00441053	700.0
2263	6.98932e+02	2.26300e+03	0.00442445	700.0
2273	6.98928e+02	2.27300e+03	0.00448264	700.0
2283	6.98925e+02	2.28300e+03	0.00444432	700.0
2293	6.98905e+02	2.29300e+03	0.00445389	700.0
2303	6.98900e+02	2.30300e+03	0.00432146	700.0
2313	6.98902e+02	2.31300e+03	0.00437009	700.0
2323	6.98888e+02	2.32300e+03	0.00443997	700.0
2333	6.98887e+02	2.33300e+03	0.00421242	700.0
2343	6.98878e+02	2.34300e+03	0.00421854	700.0
2353	6.98866e+02	2.35300e+03	0.0042797	700.0
2363	6.98865e+02	2.36300e+03	0.00426609	700.0
2373	6.98859e+02	2.37300e+03	0.00407064	700.0
2383	6.98857e+02	2.38300e+03	0.00408623	700.0
2393	6.98855e+02	2.39300e+03	0.00405924	700.0
2403	6.98843e+02	2.40300e+03	0.00409018	700.0
2413	6.98851e+02	2.41300e+03	0.00385855	700.0
2423	6.98831e+02	2.42300e+03	0.0040774	700.0
2433	6.98837e+02	2.43300e+03	0.00407457	700.0
2443	6.98840e+02	2.44300e+03	0.0040543	700.0
2453	6.98826e+02	2.45300e+03	0.00418167	700.0
2463	6.98819e+02	2.46300e+03	0.00421259	700.0
2473	6.98816e+02	2.47300e+03	0.00413407	700.0
2483	6.98819e+02	2.48300e+03	0.00408664	700.0
2493	6.98823e+02	2.49300e+03	0.00415237	700.0
2503	6.98816e+02	2.50300e+03	0.00410902	700.0
2513	6.98808e+02	2.51300e+03	0.00395835	700.0
2523	6.98806e+02	2.52300e+03	0.00411216	700.0
2533	6.98813e+02	2.53300e+03	0.00418793	700.0
2543	6.98803e+02	2.54300e+03	0.00397317	700.0
2553	6.98805e+02	2.55300e+03	0.00403455	700.0
2563	6.98806e+02	2.56300e+03	0.00403808	700.0
2573	6.98792e+02	2.57300e+03	0.00409587	700.0
2583	6.98803e+02	2.58300e+03	0.00425056	700.0
2593	6.98794e+02	2.59300e+03	0.00414547	700.0
2603	6.98792e+02	2.60300e+03	0.0039239	700.0
2613	6.98795e+02	2.61300e+03	0.00394188	700.0
2623	6.98785e+02	2.62300e+03	0.00402267	700.0
2633	6.98784e+02	2.63300e+03	0.00406489	700.0
2643	6.98787e+02	2.64300e+03	0.00411279	700.0
2653	6.98785e+02	2.65300e+03	0.00389717	700.0
2663	6.98793e+02	2.66300e+03	0.00396804	700.0
2673	6.98790e+02	2.67300e+03	0.00393436	700.0
2683	6.98792e+02	2.68300e+03	0.00402803	700.0
2693	6.98780e+02	2.69300e+03	0.00410238	700.0
2703	6.98782e+02	2.70300e+03	0.00411496	700.0
2713	6.98778e+02	2.71300e+03	0.00391386	700.0
2720	6.98783e+02	2.72000e+03	0.00379499	700.0