Folder: Pyrolysis_BESKID/Experiments/TUBS/tga_nonisotherm (part 2)

File: tga_dynamic_n2_dyn5_piece_2mg_r1.txt
index	ts	t	weight	tr
[#]	[°C]	[s]	[mg]	[°C]
1083	1.31341e+02	1.08300e+03	1.98520e+00	1.30250e+02
1120	1.34469e+02	1.12000e+03	1.98493e+00	1.33333e+02
1157	1.37572e+02	1.15700e+03	1.98483e+00	1.36417e+02
1194	1.40693e+02	1.19400e+03	1.98466e+00	1.39500e+02
1231	1.43828e+02	1.23100e+03	1.98451e+00	1.42583e+02
1268	1.46930e+02	1.26800e+03	1.98441e+00	1.45667e+02
1305	1.50060e+02	1.30500e+03	1.98421e+00	1.48750e+02
1342	1.53180e+02	1.34200e+03	1.98402e+00	1.51833e+02
1379	1.56295e+02	1.37900e+03	1.98385e+00	1.54917e+02
1416	1.59420e+02	1.41600e+03	1.98385e+00	1.58000e+02
1453	1.62527e+02	1.45300e+03	1.98356e+00	1.61083e+02
1490	1.65623e+02	1.49000e+03	1.98322e+00	1.64167e+02
1527	1.68737e+02	1.52700e+03	1.98246e+00	1.67250e+02
1564	1.71846e+02	1.56400e+03	1.98151e+00	1.70333e+02
1601	1.74960e+02	1.60100e+03	1.98013e+00	1.73417e+02
1638	1.78058e+02	1.63800e+03	1.97842e+00	1.76500e+02
1675	1.81156e+02	1.67500e+03	1.97659e+00	1.79583e+02
1712	1.84253e+02	1.71200e+03	1.97446e+00	1.82667e+02
1749	1.87311e+02	1.74900e+03	1.97199e+00	1.85750e+02
1786	1.90393e+02	1.78600e+03	1.96953e+00	1.88833e+02
1823	1.93502e+02	1.82300e+03	1.96716e+00	1.91917e+02
1860	1.96603e+02	1.86000e+03	1.96469e+00	1.95000e+02
1897	1.99722e+02	1.89700e+03	1.96204e+00	1.98083e+02
1934	2.02847e+02	1.93400e+03	1.95964e+00	2.01167e+02
1971	2.05958e+02	1.97100e+03	1.95702e+00	2.04250e+02
2008	2.09051e+02	2.00800e+03	1.95448e+00	2.07333e+02
2045	2.12144e+02	2.04500e+03	1.95199e+00	2.10417e+02
2082	2.15249e+02	2.08200e+03	1.94951e+00	2.13500e+02
2119	2.18346e+02	2.11900e+03	1.94684e+00	2.16583e+02
2156	2.21449e+02	2.15600e+03	1.94414e+00	2.19667e+02
2193	2.24523e+02	2.19300e+03	1.94132e+00	2.22750e+02
2230	2.27636e+02	2.23000e+03	1.93869e+00	2.25833e+02
2267	2.30714e+02	2.26700e+03	1.93604e+00	2.28917e+02
2304	2.33773e+02	2.30400e+03	1.93319e+00	2.32000e+02
2341	2.36809e+02	2.34100e+03	1.93042e+00	2.35083e+02
2378	2.39868e+02	2.37800e+03	1.92786e+00	2.38167e+02
2415	2.42948e+02	2.41500e+03	1.92509e+00	2.41250e+02
2452	2.46010e+02	2.45200e+03	1.92252e+00	2.44333e+02
2489	2.49067e+02	2.48900e+03	1.91965e+00	2.47417e+02
2526	2.52147e+02	2.52600e+03	1.91689e+00	2.50500e+02
2563	2.55204e+02	2.56300e+03	1.91416e+00	2.53583e+02
2600	2.58261e+02	2.60000e+03	1.91126e+00	2.56667e+02
2637	2.61371e+02	2.63700e+03	1.90836e+00	2.59750e+02
2674	2.64442e+02	2.67400e+03	1.90531e+00	2.62833e+02
2711	2.67515e+02	2.71100e+03	1.90213e+00	2.65917e+02
2748	2.70585e+02	2.74800e+03	1.89856e+00	2.69000e+02
2785	2.73696e+02	2.78500e+03	1.89489e+00	2.72083e+02
2822	2.76860e+02	2.82200e+03	1.89077e+00	2.75167e+02
2859	2.79996e+02	2.85900e+03	1.88602e+00	2.78250e+02
2896	2.83230e+02	2.89600e+03	1.88057e+00	2.81333e+02
2933	2.86489e+02	2.93300e+03	1.87468e+00	2.84417e+02
2970	2.89618e+02	2.97000e+03	1.86815e+00	2.87500e+02
3007	2.92659e+02	3.00700e+03	1.86098e+00	2.90583e+02
3044	2.95668e+02	3.04400e+03	1.85327e+00	2.93667e+02
3081	2.98725e+02	3.08100e+03	1.84538e+00	2.96750e+02
3118	3.01770e+02	3.11800e+03	1.83715e+00	2.99833e+02
3155	3.04836e+02	3.15500e+03	1.82869e+00	3.02917e+02
3192	3.07932e+02	3.19200e+03	1.81974e+00	3.06000e+02
3229	3.11020e+02	3.22900e+03	1.80995e+00	3.09083e+02
3266	3.14072e+02	3.26600e+03	1.79930e+00	3.12167e+02
3303	3.17172e+02	3.30300e+03	1.78713e+00	3.15250e+02
3340	3.20257e+02	3.34000e+03	1.77226e+00	3.18333e+02
3377	3.23333e+02	3.37700e+03	1.75482e+00	3.21417e+02
3414	3.26456e+02	3.41400e+03	1.73363e+00	3.24500e+02
3451	3.29569e+02	3.45100e+03	1.70722e+00	3.27583e+02
3488	3.32842e+02	3.48800e+03	1.67360e+00	3.30667e+02
3525	3.36000e+02	3.52500e+03	1.63311e+00	3.33750e+02
3562	3.39097e+02	3.56200e+03	1.58250e+00	3.36833e+02
3599	3.42142e+02	3.59900e+03	1.52082e+00	3.39917e+02
3636	3.45244e+02	3.63600e+03	1.44807e+00	3.43000e+02
3673	3.48349e+02	3.67300e+03	1.36362e+00	3.46083e+02
3710	3.51388e+02	3.71000e+03	1.26741e+00	3.49167e+02
3747	3.54444e+02	3.74700e+03	1.16119e+00	3.52250e+02
3784	3.57489e+02	3.78400e+03	1.04678e+00	3.55333e+02
3821	3.60515e+02	3.82100e+03	9.25498e-01	3.58417e+02
3858	3.63551e+02	3.85800e+03	8.02589e-01	3.61500e+02
3895	3.66601e+02	3.89500e+03	6.80018e-01	3.64583e+02
3932	3.69640e+02	3.93200e+03	5.57207e-01	3.67667e+02
3969	3.72734e+02	3.96900e+03	4.44778e-01	3.70750e+02
4006	3.75819e+02	4.00600e+03	3.47267e-01	3.73833e+02
4043	3.78908e+02	4.04300e+03	2.65936e-01	3.76917e+02
4080	3.82008e+02	4.08000e+03	2.00472e-01	3.80000e+02
4117	3.85078e+02	4.11700e+03	1.49932e-01	3.83083e+02
4154	3.88157e+02	4.15400e+03	1.11560e-01	3.86167e+02
4191	3.91219e+02	4.19100e+03	8.36331e-02	3.89250e+02
4228	3.94297e+02	4.22800e+03	6.35650e-02	3.92333e+02
4265	3.97369e+02	4.26500e+03	4.98373e-02	3.95417e+02
4302	4.00457e+02	4.30200e+03	3.97458e-02	3.98500e+02
4339	4.03551e+02	4.33900e+03	3.21486e-02	4.01583e+02
4376	4.06634e+02	4.37600e+03	2.65972e-02	4.04667e+02
4413	4.09706e+02	4.41300e+03	2.23115e-02	4.07750e+02
4450	4.12779e+02	4.45000e+03	1.88034e-02	4.10833e+02
4487	4.15849e+02	4.48700e+03	1.59339e-02	4.13917e+02
4524	4.18918e+02	4.52400e+03	1.39232e-02	4.17000e+02
4561	4.22002e+02	4.56100e+03	1.20361e-02	4.20083e+02
4598	4.25060e+02	4.59800e+03	1.13488e-02	4.23167e+02
4635	4.28131e+02	4.63500e+03	1.08690e-02	4.26250e+02
4672	4.31185e+02	4.67200e+03	1.11857e-02	4.29333e+02
4709	4.34245e+02	4.70900e+03	1.05092e-02	4.32417e+02
4746	4.37118e+02	4.74600e+03	1.04140e-02	4.35500e+02
4783	4.40161e+02	4.78300e+03	1.03731e-02	4.38583e+02
4820	4.43193e+02	4.82000e+03	9.58983e-03	4.41667e+02
4857	4.46235e+02	4.85700e+03	1.02875e-02	4.44750e+02
4894	4.49272e+02	4.89400e+03	1.00870e-02	4.47833e+02
4931	4.52324e+02	4.93100e+03	9.93768e-03	4.50917e+02
4968	4.55371e+02	4.96800e+03	9.82536e-03	4.54000e+02
5005	4.58429e+02	5.00500e+03	9.81160e-03	4.57083e+02
5042	4.61471e+02	5.04200e+03	9.84122e-03	4.60167e+02
5079	4.64530e+02	5.07900e+03	9.81451e-03	4.63250e+02
5116	4.67583e+02	5.11600e+03	9.76945e-03	4.66333e+02
5153	4.70641e+02	5.15300e+03	9.69010e-03	4.69417e+02
5190	4.73705e+02	5.19000e+03	9.63048e-03	4.72500e+02
5227	4.76750e+02	5.22700e+03	9.67674e-03	4.75583e+02
5264	4.79820e+02	5.26400e+03	9.63596e-03	4.78667e+02
5301	4.82874e+02	5.30100e+03	9.60921e-03	4.81750e+02
5338	4.85930e+02	5.33800e+03	9.73670e-03	4.84833e+02
5375	4.88981e+02	5.37500e+03	9.39736e-03	4.87917e+02
5412	4.92038e+02	5.41200e+03	9.39700e-03	4.91000e+02
5449	4.95095e+02	5.44900e+03	9.35205e-03	4.94083e+02
5486	4.98150e+02	5.48600e+03	9.32025e-03	4.97167e+02
5523	5.01193e+02	5.52300e+03	9.30552e-03	5.00250e+02
5560	5.04247e+02	5.56000e+03	9.31386e-03	5.03333e+02
5597	5.07329e+02	5.59700e+03	9.22130e-03	5.06417e+02
5634	5.10375e+02	5.63400e+03	9.37128e-03	5.09500e+02
5671	5.13454e+02	5.67100e+03	9.29781e-03	5.12583e+02
5708	5.16528e+02	5.70800e+03	9.30740e-03	5.15667e+02
5745	5.19573e+02	5.74500e+03	9.27975e-03	5.18750e+02
5782	5.22642e+02	5.78200e+03	9.27654e-03	5.21833e+02
5819	5.25729e+02	5.81900e+03	9.11813e-03	5.24917e+02
5856	5.28803e+02	5.85600e+03	9.19957e-03	5.28000e+02
5893	5.31874e+02	5.89300e+03	9.22861e-03	5.31083e+02
5930	5.34973e+02	5.93000e+03	9.24834e-03	5.34167e+02
5967	5.38064e+02	5.96700e+03	9.30730e-03	5.37250e+02
6004	5.41157e+02	6.00400e+03	9.17460e-03	5.40333e+02
6041	5.44268e+02	6.04100e+03	9.12067e-03	5.43417e+02
6078	5.47390e+02	6.07800e+03	8.99581e-03	5.46500e+02
6115	5.50485e+02	6.11500e+03	8.97028e-03	5.49583e+02
6152	5.53567e+02	6.15200e+03	8.90841e-03	5.52667e+02
6189	5.56599e+02	6.18900e+03	9.00132e-03	5.55750e+02
6226	5.59665e+02	6.22600e+03	8.91250e-03	5.58833e+02
6263	5.62718e+02	6.26300e+03	8.81601e-03	5.61917e+02
6300	5.65766e+02	6.30000e+03	8.75446e-03	5.65000e+02
6337	5.68838e+02	6.33700e+03	8.80032e-03	5.68083e+02
6374	5.71904e+02	6.37400e+03	8.84123e-03	5.71167e+02
6411	5.74963e+02	6.41100e+03	8.92514e-03	5.74250e+02
6448	5.78021e+02	6.44800e+03	8.79263e-03	5.77333e+02
6485	5.81094e+02	6.48500e+03	8.84433e-03	5.80417e+02
6522	5.84174e+02	6.52200e+03	8.86935e-03	5.83500e+02
6559	5.87256e+02	6.55900e+03	8.97854e-03	5.86583e+02
6596	5.90348e+02	6.59600e+03	8.79567e-03	5.89667e+02
6633	5.93425e+02	6.63300e+03	8.81110e-03	5.92750e+02
6670	5.96486e+02	6.67000e+03	8.82309e-03	5.95833e+02
6707	5.99539e+02	6.70700e+03	8.82266e-03	5.98917e+02
6744	6.02602e+02	6.74400e+03	8.85068e-03	6.02000e+02
6781	6.05650e+02	6.78100e+03	8.75295e-03	6.05083e+02
6818	6.08727e+02	6.81800e+03	8.72572e-03	6.08167e+02
6855	6.11797e+02	6.85500e+03	8.88677e-03	6.11250e+02
6892	6.14881e+02	6.89200e+03	8.75531e-03	6.14333e+02
6929	6.17965e+02	6.92900e+03	8.63967e-03	6.17417e+02
6966	6.21051e+02	6.96600e+03	8.52848e-03	6.20500e+02
7003	6.24157e+02	7.00300e+03	8.62047e-03	6.23583e+02
7040	6.27234e+02	7.04000e+03	8.51487e-03	6.26667e+02
7077	6.30318e+02	7.07700e+03	8.80197e-03	6.29750e+02
7114	6.33412e+02	7.11400e+03	8.72380e-03	6.32833e+02
7151	6.36526e+02	7.15100e+03	8.68659e-03	6.35917e+02
7188	6.39608e+02	7.18800e+03	8.57407e-03	6.39000e+02
7225	6.42690e+02	7.22500e+03	8.33294e-03	6.42083e+02
7262	6.45786e+02	7.26200e+03	8.29468e-03	6.45167e+02
7299	6.48899e+02	7.29900e+03	8.25224e-03	6.48250e+02
7336	6.51983e+02	7.33600e+03	8.49216e-03	6.51333e+02
7373	6.55075e+02	7.37300e+03	8.55753e-03	6.54417e+02
7410	6.58155e+02	7.41000e+03	8.51808e-03	6.57500e+02
7447	6.61247e+02	7.44700e+03	8.44371e-03	6.60583e+02
7484	6.64337e+02	7.48400e+03	8.53644e-03	6.63667e+02
7521	6.67425e+02	7.52100e+03	8.58973e-03	6.66750e+02
7558	6.70527e+02	7.55800e+03	8.70194e-03	6.69833e+02
7595	6.73615e+02	7.59500e+03	8.65717e-03	6.72917e+02
7632	6.76698e+02	7.63200e+03	8.61511e-03	6.76000e+02
7669	6.79775e+02	7.66900e+03	8.83258e-03	6.79083e+02
7706	6.82852e+02	7.70600e+03	8.73486e-03	6.82167e+02
7743	6.85935e+02	7.74300e+03	8.70795e-03	6.85250e+02
7780	6.89020e+02	7.78000e+03	8.69299e-03	6.88333e+02
7817	6.92105e+02	7.81700e+03	8.82812e-03	6.91417e+02
7854	6.95190e+02	7.85400e+03	8.82866e-03	6.94500e+02
7891	6.98269e+02	7.89100e+03	8.79964e-03	6.97583e+02
7920	6.99775e+02	7.92000e+03	8.75089e-03	7.00000e+02

File: tga_dynamic_n2_dyn5_piece_2mg_r2.txt
index	ts	t	weight	tr
[#]	[°C]	[s]	[mg]	[°C]
1083	1.31380e+02	1.08300e+03	2.04426e+00	1.30250e+02
1120	1.34500e+02	1.12000e+03	2.04403e+00	1.33333e+02
1157	1.37602e+02	1.15700e+03	2.04392e+00	1.36417e+02
1194	1.40748e+02	1.19400e+03	2.04396e+00	1.39500e+02
1231	1.43860e+02	1.23100e+03	2.04366e+00	1.42583e+02
1268	1.46986e+02	1.26800e+03	2.04363e+00	1.45667e+02
1305	1.50118e+02	1.30500e+03	2.04342e+00	1.48750e+02
1342	1.53241e+02	1.34200e+03	2.04335e+00	1.51833e+02
1379	1.56365e+02	1.37900e+03	2.04305e+00	1.54917e+02
1416	1.59488e+02	1.41600e+03	2.04300e+00	1.58000e+02
1453	1.62591e+02	1.45300e+03	2.04267e+00	1.61083e+02
1490	1.65710e+02	1.49000e+03	2.04214e+00	1.64167e+02
1527	1.68822e+02	1.52700e+03	2.04139e+00	1.67250e+02
1564	1.71926e+02	1.56400e+03	2.04001e+00	1.70333e+02
1601	1.75045e+02	1.60100e+03	2.03827e+00	1.73417e+02
1638	1.78154e+02	1.63800e+03	2.03625e+00	1.76500e+02
1675	1.81276e+02	1.67500e+03	2.03396e+00	1.79583e+02
1712	1.84378e+02	1.71200e+03	2.03119e+00	1.82667e+02
1749	1.87514e+02	1.74900e+03	2.02842e+00	1.85750e+02
1786	1.90624e+02	1.78600e+03	2.02548e+00	1.88833e+02
1823	1.93744e+02	1.82300e+03	2.02259e+00	1.91917e+02
1860	1.96871e+02	1.86000e+03	2.01970e+00	1.95000e+02
1897	1.99967e+02	1.89700e+03	2.01659e+00	1.98083e+02
1934	2.03061e+02	1.93400e+03	2.01339e+00	2.01167e+02
1971	2.06146e+02	1.97100e+03	2.01026e+00	2.04250e+02
2008	2.09213e+02	2.00800e+03	2.00687e+00	2.07333e+02
2045	2.12284e+02	2.04500e+03	2.00364e+00	2.10417e+02
2082	2.15347e+02	2.08200e+03	2.00032e+00	2.13500e+02
2119	2.18419e+02	2.11900e+03	1.99712e+00	2.16583e+02
2156	2.21488e+02	2.15600e+03	1.99377e+00	2.19667e+02
2193	2.24588e+02	2.19300e+03	1.99042e+00	2.22750e+02
2230	2.27678e+02	2.23000e+03	1.98708e+00	2.25833e+02
2267	2.30756e+02	2.26700e+03	1.98382e+00	2.28917e+02
2304	2.33813e+02	2.30400e+03	1.98078e+00	2.32000e+02
2341	2.36901e+02	2.34100e+03	1.97766e+00	2.35083e+02
2378	2.39954e+02	2.37800e+03	1.97474e+00	2.38167e+02
2415	2.43065e+02	2.41500e+03	1.97169e+00	2.41250e+02
2452	2.46130e+02	2.45200e+03	1.96874e+00	2.44333e+02
2489	2.49202e+02	2.48900e+03	1.96593e+00	2.47417e+02
2526	2.52285e+02	2.52600e+03	1.96301e+00	2.50500e+02
2563	2.55346e+02	2.56300e+03	1.96028e+00	2.53583e+02
2600	2.58444e+02	2.60000e+03	1.95724e+00	2.56667e+02
2637	2.61543e+02	2.63700e+03	1.95437e+00	2.59750e+02
2674	2.64639e+02	2.67400e+03	1.95128e+00	2.62833e+02
2711	2.67726e+02	2.71100e+03	1.94786e+00	2.65917e+02
2748	2.70819e+02	2.74800e+03	1.94405e+00	2.69000e+02
2785	2.73932e+02	2.78500e+03	1.93977e+00	2.72083e+02
2822	2.77097e+02	2.82200e+03	1.93508e+00	2.75167e+02
2859	2.80239e+02	2.85900e+03	1.92960e+00	2.78250e+02
2896	2.83359e+02	2.89600e+03	1.92335e+00	2.81333e+02
2933	2.86593e+02	2.93300e+03	1.91635e+00	2.84417e+02
2970	2.89771e+02	2.97000e+03	1.90851e+00	2.87500e+02
3007	2.92980e+02	3.00700e+03	1.90036e+00	2.90583e+02
3044	2.96086e+02	3.04400e+03	1.89142e+00	2.93667e+02
3081	2.99170e+02	3.08100e+03	1.88218e+00	2.96750e+02
3118	3.02268e+02	3.11800e+03	1.87289e+00	2.99833e+02
3155	3.05372e+02	3.15500e+03	1.86335e+00	3.02917e+02
3192	3.08430e+02	3.19200e+03	1.85316e+00	3.06000e+02
3229	3.11570e+02	3.22900e+03	1.84210e+00	3.09083e+02
3266	3.14724e+02	3.26600e+03	1.82969e+00	3.12167e+02
3303	3.17895e+02	3.30300e+03	1.81519e+00	3.15250e+02
3340	3.21023e+02	3.34000e+03	1.79781e+00	3.18333e+02
3377	3.24123e+02	3.37700e+03	1.77717e+00	3.21417e+02
3414	3.27294e+02	3.41400e+03	1.75229e+00	3.24500e+02
3451	3.30436e+02	3.45100e+03	1.72188e+00	3.27583e+02
3488	3.33426e+02	3.48800e+03	1.68499e+00	3.30667e+02
3525	3.36447e+02	3.52500e+03	1.64009e+00	3.33750e+02
3562	3.39468e+02	3.56200e+03	1.58626e+00	3.36833e+02
3599	3.42533e+02	3.59900e+03	1.52185e+00	3.39917e+02
3636	3.45620e+02	3.63600e+03	1.44537e+00	3.43000e+02
3673	3.48716e+02	3.67300e+03	1.35732e+00	3.46083e+02
3710	3.51787e+02	3.71000e+03	1.25692e+00	3.49167e+02
3747	3.54863e+02	3.74700e+03	1.14746e+00	3.52250e+02
3784	3.57902e+02	3.78400e+03	1.02913e+00	3.55333e+02
3821	3.61108e+02	3.82100e+03	9.06856e-01	3.58417e+02
3858	3.64323e+02	3.85800e+03	7.82500e-01	3.61500e+02
3895	3.67577e+02	3.89500e+03	6.59622e-01	3.64583e+02
3932	3.70689e+02	3.93200e+03	5.40497e-01	3.67667e+02
3969	3.73772e+02	3.96900e+03	4.32077e-01	3.70750e+02
4006	3.77040e+02	4.00600e+03	3.37066e-01	3.73833e+02
4043	3.80174e+02	4.04300e+03	2.58868e-01	3.76917e+02
4080	3.83251e+02	4.08000e+03	1.96550e-01	3.80000e+02
4117	3.86364e+02	4.11700e+03	1.48336e-01	3.83083e+02
4154	3.89484e+02	4.15400e+03	1.12203e-01	3.86167e+02
4191	3.92623e+02	4.19100e+03	8.54416e-02	3.89250e+02
4228	3.95732e+02	4.22800e+03	6.54962e-02	3.92333e+02
4265	3.98914e+02	4.26500e+03	5.12229e-02	3.95417e+02
4302	4.02146e+02	4.30200e+03	4.04313e-02	3.98500e+02
4339	4.05336e+02	4.33900e+03	3.21586e-02	4.01583e+02
4376	4.08663e+02	4.37600e+03	2.60424e-02	4.04667e+02
4413	4.12083e+02	4.41300e+03	2.09447e-02	4.07750e+02
4450	4.15231e+02	4.45000e+03	1.69105e-02	4.10833e+02
4487	4.17990e+02	4.48700e+03	1.35949e-02	4.13917e+02
4524	4.20920e+02	4.52400e+03	1.10116e-02	4.17000e+02
4561	4.24096e+02	4.56100e+03	8.88226e-03	4.20083e+02
4598	4.26734e+02	4.59800e+03	7.79741e-03	4.23167e+02
4635	4.29534e+02	4.63500e+03	7.44622e-03	4.26250e+02
4672	4.32377e+02	4.67200e+03	7.56294e-03	4.29333e+02
4709	4.35285e+02	4.70900e+03	7.06767e-03	4.32417e+02
4746	4.37764e+02	4.74600e+03	6.76865e-03	4.35500e+02
4783	4.40699e+02	4.78300e+03	6.82039e-03	4.38583e+02
4820	4.43690e+02	4.82000e+03	5.91234e-03	4.41667e+02
4857	4.46701e+02	4.85700e+03	6.62284e-03	4.44750e+02
4894	4.49691e+02	4.89400e+03	6.34560e-03	4.47833e+02
4931	4.52680e+02	4.93100e+03	6.17101e-03	4.50917e+02
4968	4.55685e+02	4.96800e+03	6.05162e-03	4.54000e+02
5005	4.58690e+02	5.00500e+03	5.97454e-03	4.57083e+02
5042	4.61718e+02	5.04200e+03	6.10318e-03	4.60167e+02
5079	4.64747e+02	5.07900e+03	6.00125e-03	4.63250e+02
5116	4.67806e+02	5.11600e+03	6.01361e-03	4.66333e+02
5153	4.70821e+02	5.15300e+03	5.86937e-03	4.69417e+02
5190	4.73894e+02	5.19000e+03	5.70978e-03	4.72500e+02
5227	4.76951e+02	5.22700e+03	5.68398e-03	4.75583e+02
5264	4.79983e+02	5.26400e+03	5.64320e-03	4.78667e+02
5301	4.83038e+02	5.30100e+03	5.69892e-03	4.81750e+02
5338	4.86081e+02	5.33800e+03	5.63916e-03	4.84833e+02
5375	4.89133e+02	5.37500e+03	5.54636e-03	4.87917e+02
5412	4.92187e+02	5.41200e+03	5.52478e-03	4.91000e+02
5449	4.95216e+02	5.44900e+03	5.54774e-03	4.94083e+02
5486	4.98248e+02	5.48600e+03	5.44918e-03	4.97167e+02
5523	5.01289e+02	5.52300e+03	5.27956e-03	5.00250e+02
5560	5.04327e+02	5.56000e+03	5.51196e-03	5.03333e+02
5597	5.07376e+02	5.59700e+03	5.32316e-03	5.06417e+02
5634	5.10411e+02	5.63400e+03	5.36758e-03	5.09500e+02
5671	5.13445e+02	5.67100e+03	5.36013e-03	5.12583e+02
5708	5.16499e+02	5.70800e+03	5.46096e-03	5.15667e+02
5745	5.19547e+02	5.74500e+03	5.54231e-03	5.18750e+02
5782	5.22626e+02	5.78200e+03	5.40276e-03	5.21833e+02
5819	5.25692e+02	5.81900e+03	5.29603e-03	5.24917e+02
5856	5.28786e+02	5.85600e+03	5.39313e-03	5.28000e+02
5893	5.31854e+02	5.89300e+03	5.35538e-03	5.31083e+02
5930	5.34936e+02	5.93000e+03	5.30761e-03	5.34167e+02
5967	5.37991e+02	5.96700e+03	5.61374e-03	5.37250e+02
6004	5.41051e+02	6.00400e+03	5.40195e-03	5.40333e+02
6041	5.44129e+02	6.04100e+03	5.31979e-03	5.43417e+02
6078	5.47193e+02	6.07800e+03	5.27867e-03	5.46500e+02
6115	5.50226e+02	6.11500e+03	5.26399e-03	5.49583e+02
6152	5.53266e+02	6.15200e+03	5.14666e-03	5.52667e+02
6189	5.56343e+02	6.18900e+03	5.28423e-03	5.55750e+02
6226	5.59435e+02	6.22600e+03	5.22312e-03	5.58833e+02
6263	5.62540e+02	6.26300e+03	5.10207e-03	5.61917e+02
6300	5.65640e+02	6.30000e+03	5.12629e-03	5.65000e+02
6337	5.68731e+02	6.33700e+03	4.96407e-03	5.68083e+02
6374	5.71829e+02	6.37400e+03	5.11221e-03	5.71167e+02
6411	5.74959e+02	6.41100e+03	5.11240e-03	5.74250e+02
6448	5.78072e+02	6.44800e+03	5.08434e-03	5.77333e+02
6485	5.81181e+02	6.48500e+03	5.02353e-03	5.80417e+02
6522	5.84252e+02	6.52200e+03	5.01692e-03	5.83500e+02
6559	5.87370e+02	6.55900e+03	5.22904e-03	5.86583e+02
6596	5.90472e+02	6.59600e+03	5.12068e-03	5.89667e+02
6633	5.93555e+02	6.63300e+03	5.11150e-03	5.92750e+02
6670	5.96604e+02	6.67000e+03	5.03042e-03	5.95833e+02
6707	5.99635e+02	6.70700e+03	5.06043e-03	5.98917e+02
6744	6.02691e+02	6.74400e+03	5.16026e-03	6.02000e+02
6781	6.05774e+02	6.78100e+03	5.06308e-03	6.05083e+02
6818	6.08868e+02	6.81800e+03	4.97833e-03	6.08167e+02
6855	6.11923e+02	6.85500e+03	4.98543e-03	6.11250e+02
6892	6.14988e+02	6.89200e+03	5.05564e-03	6.14333e+02
6929	6.18059e+02	6.92900e+03	4.74553e-03	6.17417e+02
6966	6.21119e+02	6.96600e+03	4.86782e-03	6.20500e+02
7003	6.24171e+02	7.00300e+03	4.73072e-03	6.23583e+02
7040	6.27239e+02	7.04000e+03	4.59767e-03	6.26667e+02
7077	6.30343e+02	7.07700e+03	4.69726e-03	6.29750e+02
7114	6.33435e+02	7.11400e+03	4.63486e-03	6.32833e+02
7151	6.36521e+02	7.15100e+03	4.58621e-03	6.35917e+02
7188	6.39618e+02	7.18800e+03	4.60669e-03	6.39000e+02
7225	6.42697e+02	7.22500e+03	4.27880e-03	6.42083e+02
7262	6.45803e+02	7.26200e+03	4.28352e-03	6.45167e+02
7299	6.48919e+02	7.29900e+03	4.42009e-03	6.48250e+02
7336	6.51984e+02	7.33600e+03	4.36504e-03	6.51333e+02
7373	6.55044e+02	7.37300e+03	4.30403e-03	6.54417e+02
7410	6.58128e+02	7.41000e+03	4.26442e-03	6.57500e+02
7447	6.61220e+02	7.44700e+03	4.19209e-03	6.60583e+02
7484	6.64316e+02	7.48400e+03	4.18671e-03	6.63667e+02
7521	6.67416e+02	7.52100e+03	4.51596e-03	6.66750e+02
7558	6.70500e+02	7.55800e+03	4.41700e-03	6.69833e+02
7595	6.73615e+02	7.59500e+03	4.46097e-03	6.72917e+02
7632	6.76718e+02	7.63200e+03	4.35305e-03	6.76000e+02
7669	6.79823e+02	7.66900e+03	4.25741e-03	6.79083e+02
7706	6.82924e+02	7.70600e+03	4.15200e-03	6.82167e+02
7743	6.86000e+02	7.74300e+03	4.14456e-03	6.85250e+02
7780	6.89099e+02	7.78000e+03	4.17421e-03	6.88333e+02
7817	6.92192e+02	7.81700e+03	4.19162e-03	6.91417e+02
7854	6.95261e+02	7.85400e+03	4.02913e-03	6.94500e+02
7891	6.98341e+02	7.89100e+03	4.01076e-03	6.97583e+02
7920	6.99826e+02	7.92000e+03	3.95870e-03	7.00000e+02