Folder: Pyrolysis_BESKID/Experiments/TUBS/tga_nonisotherm (part 30)

File: tga_dynamic_n2_dyn30_powder_6mg_r2.txt
index	ts	t	weight	tr
[#]	[°C]	[s]	[mg]	[°C]
683	1.31212e+02	6.83000e+02	5.93068e+00	1.31500e+02
689	1.34216e+02	6.89000e+02	5.93017e+00	1.34500e+02
695	1.37246e+02	6.95000e+02	5.92956e+00	1.37500e+02
701	1.40271e+02	7.01000e+02	5.92876e+00	1.40500e+02
707	1.43298e+02	7.07000e+02	5.92788e+00	1.43500e+02
713	1.46330e+02	7.13000e+02	5.92641e+00	1.46500e+02
719	1.49361e+02	7.19000e+02	5.92471e+00	1.49500e+02
725	1.52398e+02	7.25000e+02	5.92265e+00	1.52500e+02
731	1.55442e+02	7.31000e+02	5.92015e+00	1.55500e+02
737	1.58463e+02	7.37000e+02	5.91744e+00	1.58500e+02
743	1.61520e+02	7.43000e+02	5.91456e+00	1.61500e+02
749	1.64560e+02	7.49000e+02	5.91122e+00	1.64500e+02
755	1.67600e+02	7.55000e+02	5.90753e+00	1.67500e+02
761	1.70651e+02	7.61000e+02	5.90313e+00	1.70500e+02
767	1.73697e+02	7.67000e+02	5.89784e+00	1.73500e+02
773	1.76750e+02	7.73000e+02	5.89135e+00	1.76500e+02
779	1.79789e+02	7.79000e+02	5.88312e+00	1.79500e+02
785	1.82840e+02	7.85000e+02	5.87228e+00	1.82500e+02
791	1.85882e+02	7.91000e+02	5.85910e+00	1.85500e+02
797	1.88930e+02	7.97000e+02	5.84300e+00	1.88500e+02
803	1.91976e+02	8.03000e+02	5.82489e+00	1.91500e+02
809	1.95030e+02	8.09000e+02	5.80531e+00	1.94500e+02
815	1.98082e+02	8.15000e+02	5.78511e+00	1.97500e+02
821	2.01146e+02	8.21000e+02	5.76568e+00	2.00500e+02
827	2.04212e+02	8.27000e+02	5.74784e+00	2.03500e+02
833	2.07270e+02	8.33000e+02	5.73278e+00	2.06500e+02
839	2.10356e+02	8.39000e+02	5.72047e+00	2.09500e+02
845	2.13422e+02	8.45000e+02	5.71120e+00	2.12500e+02
851	2.16486e+02	8.51000e+02	5.70405e+00	2.15500e+02
857	2.19530e+02	8.57000e+02	5.69868e+00	2.18500e+02
863	2.22488e+02	8.63000e+02	5.69380e+00	2.21500e+02
869	2.25504e+02	8.69000e+02	5.68941e+00	2.24500e+02
875	2.28540e+02	8.75000e+02	5.68495e+00	2.27500e+02
881	2.31567e+02	8.81000e+02	5.68029e+00	2.30500e+02
887	2.34584e+02	8.87000e+02	5.67555e+00	2.33500e+02
893	2.37609e+02	8.93000e+02	5.67127e+00	2.36500e+02
899	2.40648e+02	8.99000e+02	5.66719e+00	2.39500e+02
905	2.43702e+02	9.05000e+02	5.66324e+00	2.42500e+02
911	2.46747e+02	9.11000e+02	5.65941e+00	2.45500e+02
917	2.49778e+02	9.17000e+02	5.65581e+00	2.48500e+02
923	2.52834e+02	9.23000e+02	5.65263e+00	2.51500e+02
929	2.55863e+02	9.29000e+02	5.64958e+00	2.54500e+02
935	2.58917e+02	9.35000e+02	5.64637e+00	2.57500e+02
941	2.61992e+02	9.41000e+02	5.64326e+00	2.60500e+02
947	2.65007e+02	9.47000e+02	5.64035e+00	2.63500e+02
953	2.68042e+02	9.53000e+02	5.63715e+00	2.66500e+02
959	2.71074e+02	9.59000e+02	5.63377e+00	2.69500e+02
965	2.74134e+02	9.65000e+02	5.62949e+00	2.72500e+02
971	2.77166e+02	9.71000e+02	5.62494e+00	2.75500e+02
977	2.80199e+02	9.77000e+02	5.61970e+00	2.78500e+02
983	2.83232e+02	9.83000e+02	5.61329e+00	2.81500e+02
989	2.86264e+02	9.89000e+02	5.60575e+00	2.84500e+02
995	2.89331e+02	9.95000e+02	5.59696e+00	2.87500e+02
1001	2.92357e+02	1.00100e+03	5.58624e+00	2.90500e+02
1007	2.95441e+02	1.00700e+03	5.57347e+00	2.93500e+02
1013	2.98546e+02	1.01300e+03	5.55840e+00	2.96500e+02
1019	3.01596e+02	1.01900e+03	5.54116e+00	2.99500e+02
1025	3.04688e+02	1.02500e+03	5.52173e+00	3.02500e+02
1031	3.07736e+02	1.03100e+03	5.50028e+00	3.05500e+02
1037	3.10892e+02	1.03700e+03	5.47696e+00	3.08500e+02
1043	3.13933e+02	1.04300e+03	5.45233e+00	3.11500e+02
1049	3.17143e+02	1.04900e+03	5.42664e+00	3.14500e+02
1055	3.20353e+02	1.05500e+03	5.40020e+00	3.17500e+02
1061	3.23649e+02	1.06100e+03	5.37354e+00	3.20500e+02
1067	3.26888e+02	1.06700e+03	5.34609e+00	3.23500e+02
1073	3.30057e+02	1.07300e+03	5.31657e+00	3.26500e+02
1079	3.33138e+02	1.07900e+03	5.28364e+00	3.29500e+02
1085	3.36113e+02	1.08500e+03	5.24490e+00	3.32500e+02
1091	3.39063e+02	1.09100e+03	5.19954e+00	3.35500e+02
1097	3.42205e+02	1.09700e+03	5.14465e+00	3.38500e+02
1103	3.45188e+02	1.10300e+03	5.07972e+00	3.41500e+02
1109	3.48191e+02	1.10900e+03	5.00213e+00	3.44500e+02
1115	3.51084e+02	1.11500e+03	4.91131e+00	3.47500e+02
1121	3.53885e+02	1.12100e+03	4.80418e+00	3.50500e+02
1127	3.56661e+02	1.12700e+03	4.68163e+00	3.53500e+02
1133	3.59480e+02	1.13300e+03	4.54071e+00	3.56500e+02
1139	3.62388e+02	1.13900e+03	4.38324e+00	3.59500e+02
1145	3.65356e+02	1.14500e+03	4.20797e+00	3.62500e+02
1151	3.68337e+02	1.15100e+03	4.01815e+00	3.65500e+02
1157	3.71249e+02	1.15700e+03	3.81340e+00	3.68500e+02
1163	3.74192e+02	1.16300e+03	3.59637e+00	3.71500e+02
1169	3.77009e+02	1.16900e+03	3.36598e+00	3.74500e+02
1175	3.79895e+02	1.17500e+03	3.12470e+00	3.77500e+02
1181	3.82804e+02	1.18100e+03	2.87056e+00	3.80500e+02
1187	3.85696e+02	1.18700e+03	2.60448e+00	3.83500e+02
1193	3.88647e+02	1.19300e+03	2.33005e+00	3.86500e+02
1199	3.91653e+02	1.19900e+03	2.05510e+00	3.89500e+02
1205	3.94743e+02	1.20500e+03	1.78242e+00	3.92500e+02
1211	3.97789e+02	1.21100e+03	1.51535e+00	3.95500e+02
1217	4.00769e+02	1.21700e+03	1.26140e+00	3.98500e+02
1223	4.03797e+02	1.22300e+03	1.02756e+00	4.01500e+02
1229	4.06847e+02	1.22900e+03	8.21922e-01	4.04500e+02
1235	4.09953e+02	1.23500e+03	6.49020e-01	4.07500e+02
1241	4.13130e+02	1.24100e+03	5.06899e-01	4.10500e+02
1247	4.16173e+02	1.24700e+03	3.90619e-01	4.13500e+02
1253	4.19227e+02	1.25300e+03	2.99399e-01	4.16500e+02
1259	4.22301e+02	1.25900e+03	2.26992e-01	4.19500e+02
1265	4.25261e+02	1.26500e+03	1.73436e-01	4.22500e+02
1271	4.28349e+02	1.27100e+03	1.33479e-01	4.25500e+02
1277	4.31524e+02	1.27700e+03	1.05527e-01	4.28500e+02
1283	4.34554e+02	1.28300e+03	8.52839e-02	4.31500e+02
1289	4.37643e+02	1.28900e+03	7.19276e-02	4.34500e+02
1295	4.40608e+02	1.29500e+03	6.21366e-02	4.37500e+02
1301	4.43392e+02	1.30100e+03	5.55722e-02	4.40500e+02
1307	4.46394e+02	1.30700e+03	5.07960e-02	4.43500e+02
1313	4.49404e+02	1.31300e+03	4.76846e-02	4.46500e+02
1319	4.52288e+02	1.31900e+03	4.56210e-02	4.49500e+02
1325	4.55074e+02	1.32500e+03	4.39167e-02	4.52500e+02
1331	4.57874e+02	1.33100e+03	4.27882e-02	4.55500e+02
1337	4.60871e+02	1.33700e+03	4.22876e-02	4.58500e+02
1343	4.63991e+02	1.34300e+03	4.21877e-02	4.61500e+02
1349	4.66922e+02	1.34900e+03	4.19606e-02	4.64500e+02
1355	4.69784e+02	1.35500e+03	4.15528e-02	4.67500e+02
1361	4.72635e+02	1.36100e+03	4.12376e-02	4.70500e+02
1367	4.75480e+02	1.36700e+03	4.12433e-02	4.73500e+02
1373	4.78381e+02	1.37300e+03	4.08738e-02	4.76500e+02
1379	4.81268e+02	1.37900e+03	4.06295e-02	4.79500e+02
1385	4.84173e+02	1.38500e+03	4.06309e-02	4.82500e+02
1391	4.87136e+02	1.39100e+03	4.04279e-02	4.85500e+02
1397	4.90118e+02	1.39700e+03	4.02008e-02	4.88500e+02
1403	4.93085e+02	1.40300e+03	4.02774e-02	4.91500e+02
1409	4.96049e+02	1.40900e+03	3.99509e-02	4.94500e+02
1415	4.99052e+02	1.41500e+03	3.97838e-02	4.97500e+02
1421	5.02028e+02	1.42100e+03	3.97454e-02	5.00500e+02
1427	5.04999e+02	1.42700e+03	3.96155e-02	5.03500e+02
1433	5.07969e+02	1.43300e+03	3.95977e-02	5.06500e+02
1439	5.10951e+02	1.43900e+03	3.96009e-02	5.09500e+02
1445	5.14082e+02	1.44500e+03	3.95292e-02	5.12500e+02
1451	5.17090e+02	1.45100e+03	3.92218e-02	5.15500e+02
1457	5.19963e+02	1.45700e+03	3.93138e-02	5.18500e+02
1463	5.22873e+02	1.46300e+03	3.96664e-02	5.21500e+02
1469	5.25730e+02	1.46900e+03	3.95500e-02	5.24500e+02
1475	5.28705e+02	1.47500e+03	3.92398e-02	5.27500e+02
1481	5.31703e+02	1.48100e+03	3.91964e-02	5.30500e+02
1487	5.34665e+02	1.48700e+03	3.91672e-02	5.33500e+02
1493	5.37917e+02	1.49300e+03	3.92760e-02	5.36500e+02
1499	5.40744e+02	1.49900e+03	3.92324e-02	5.39500e+02
1505	5.43682e+02	1.50500e+03	3.90416e-02	5.42500e+02
1511	5.46562e+02	1.51100e+03	3.89950e-02	5.45500e+02
1517	5.49490e+02	1.51700e+03	3.89810e-02	5.48500e+02
1523	5.52412e+02	1.52300e+03	3.88271e-02	5.51500e+02
1529	5.55284e+02	1.52900e+03	3.86041e-02	5.54500e+02
1535	5.58214e+02	1.53500e+03	3.84158e-02	5.57500e+02
1541	5.61128e+02	1.54100e+03	3.87625e-02	5.60500e+02
1547	5.64028e+02	1.54700e+03	3.88431e-02	5.63500e+02
1553	5.66852e+02	1.55300e+03	3.87259e-02	5.66500e+02
1559	5.69782e+02	1.55900e+03	3.86956e-02	5.69500e+02
1565	5.72750e+02	1.56500e+03	3.85604e-02	5.72500e+02
1571	5.75689e+02	1.57100e+03	3.88995e-02	5.75500e+02
1577	5.78689e+02	1.57700e+03	3.92135e-02	5.78500e+02
1583	5.81782e+02	1.58300e+03	3.87899e-02	5.81500e+02
1589	5.84793e+02	1.58900e+03	3.81350e-02	5.84500e+02
1595	5.87657e+02	1.59500e+03	3.80120e-02	5.87500e+02
1601	5.90483e+02	1.60100e+03	3.84736e-02	5.90500e+02
1607	5.93414e+02	1.60700e+03	3.83445e-02	5.93500e+02
1613	5.96300e+02	1.61300e+03	3.83443e-02	5.96500e+02
1619	5.99224e+02	1.61900e+03	3.83775e-02	5.99500e+02
1625	6.02161e+02	1.62500e+03	3.86388e-02	6.02500e+02
1631	6.05085e+02	1.63100e+03	3.84021e-02	6.05500e+02
1637	6.08009e+02	1.63700e+03	3.78730e-02	6.08500e+02
1643	6.10957e+02	1.64300e+03	3.79652e-02	6.11500e+02
1649	6.13904e+02	1.64900e+03	3.82698e-02	6.14500e+02
1655	6.16853e+02	1.65500e+03	3.81376e-02	6.17500e+02
1661	6.19838e+02	1.66100e+03	3.80226e-02	6.20500e+02
1667	6.22844e+02	1.66700e+03	3.80225e-02	6.23500e+02
1673	6.25856e+02	1.67300e+03	3.79973e-02	6.26500e+02
1679	6.28826e+02	1.67900e+03	3.78937e-02	6.29500e+02
1685	6.31873e+02	1.68500e+03	3.79870e-02	6.32500e+02
1691	6.34891e+02	1.69100e+03	3.79981e-02	6.35500e+02
1697	6.38040e+02	1.69700e+03	3.81029e-02	6.38500e+02
1703	6.41024e+02	1.70300e+03	3.81231e-02	6.41500e+02
1709	6.44014e+02	1.70900e+03	3.77998e-02	6.44500e+02
1715	6.46940e+02	1.71500e+03	3.79509e-02	6.47500e+02
1721	6.49880e+02	1.72100e+03	3.76771e-02	6.50500e+02
1727	6.52885e+02	1.72700e+03	3.76764e-02	6.53500e+02
1733	6.55940e+02	1.73300e+03	3.82655e-02	6.56500e+02
1739	6.58952e+02	1.73900e+03	3.83284e-02	6.59500e+02
1745	6.62001e+02	1.74500e+03	3.79005e-02	6.62500e+02
1751	6.65002e+02	1.75100e+03	3.77286e-02	6.65500e+02
1757	6.67936e+02	1.75700e+03	3.77646e-02	6.68500e+02
1763	6.70915e+02	1.76300e+03	3.78903e-02	6.71500e+02
1769	6.73889e+02	1.76900e+03	3.79134e-02	6.74500e+02
1775	6.76857e+02	1.77500e+03	3.77926e-02	6.77500e+02
1781	6.79825e+02	1.78100e+03	3.77006e-02	6.80500e+02
1787	6.82777e+02	1.78700e+03	3.76578e-02	6.83500e+02
1793	6.85744e+02	1.79300e+03	3.74514e-02	6.86500e+02
1799	6.87577e+02	1.79900e+03	3.80506e-02	6.89500e+02
1805	6.89520e+02	1.80500e+03	3.82486e-02	6.92500e+02
1811	6.91131e+02	1.81100e+03	3.79595e-02	6.95500e+02
1817	6.92493e+02	1.81700e+03	3.78779e-02	6.98500e+02
1820	6.93099e+02	1.82000e+03	3.78362e-02	7.00000e+02

File: tga_dynamic_n2_dyn30_powder_6mg_r3.txt
index	ts	t	weight	tr
[#]	[°C]	[s]	[mg]	[°C]
683	1.31121e+02	6.83000e+02	5.92375e+00	1.31500e+02
689	1.34130e+02	6.89000e+02	5.92348e+00	1.34500e+02
695	1.37163e+02	6.95000e+02	5.92288e+00	1.37500e+02
701	1.40155e+02	7.01000e+02	5.92169e+00	1.40500e+02
707	1.43178e+02	7.07000e+02	5.92075e+00	1.43500e+02
713	1.46203e+02	7.13000e+02	5.91948e+00	1.46500e+02
719	1.49229e+02	7.19000e+02	5.91790e+00	1.49500e+02
725	1.52264e+02	7.25000e+02	5.91606e+00	1.52500e+02
731	1.55302e+02	7.31000e+02	5.91364e+00	1.55500e+02
737	1.58335e+02	7.37000e+02	5.91095e+00	1.58500e+02
743	1.61382e+02	7.43000e+02	5.90808e+00	1.61500e+02
749	1.64410e+02	7.49000e+02	5.90499e+00	1.64500e+02
755	1.67453e+02	7.55000e+02	5.90136e+00	1.67500e+02
761	1.70501e+02	7.61000e+02	5.89704e+00	1.70500e+02
767	1.73534e+02	7.67000e+02	5.89192e+00	1.73500e+02
773	1.76576e+02	7.73000e+02	5.88541e+00	1.76500e+02
779	1.79618e+02	7.79000e+02	5.87697e+00	1.79500e+02
785	1.82662e+02	7.85000e+02	5.86615e+00	1.82500e+02
791	1.85701e+02	7.91000e+02	5.85287e+00	1.85500e+02
797	1.88756e+02	7.97000e+02	5.83685e+00	1.88500e+02
803	1.91806e+02	8.03000e+02	5.81881e+00	1.91500e+02
809	1.94874e+02	8.09000e+02	5.79900e+00	1.94500e+02
815	1.97939e+02	8.15000e+02	5.77871e+00	1.97500e+02
821	2.01014e+02	8.21000e+02	5.75895e+00	2.00500e+02
827	2.04101e+02	8.27000e+02	5.74076e+00	2.03500e+02
833	2.07169e+02	8.33000e+02	5.72557e+00	2.06500e+02
839	2.10259e+02	8.39000e+02	5.71314e+00	2.09500e+02
845	2.13358e+02	8.45000e+02	5.70362e+00	2.12500e+02
851	2.16440e+02	8.51000e+02	5.69664e+00	2.15500e+02
857	2.19522e+02	8.57000e+02	5.69138e+00	2.18500e+02
863	2.22600e+02	8.63000e+02	5.68655e+00	2.21500e+02
869	2.25649e+02	8.69000e+02	5.68222e+00	2.24500e+02
875	2.28693e+02	8.75000e+02	5.67802e+00	2.27500e+02
881	2.31765e+02	8.81000e+02	5.67359e+00	2.30500e+02
887	2.34837e+02	8.87000e+02	5.66910e+00	2.33500e+02
893	2.37919e+02	8.93000e+02	5.66499e+00	2.36500e+02
899	2.41012e+02	8.99000e+02	5.66082e+00	2.39500e+02
905	2.44083e+02	9.05000e+02	5.65683e+00	2.42500e+02
911	2.47114e+02	9.11000e+02	5.65316e+00	2.45500e+02
917	2.50137e+02	9.17000e+02	5.64970e+00	2.48500e+02
923	2.53169e+02	9.23000e+02	5.64623e+00	2.51500e+02
929	2.56240e+02	9.29000e+02	5.64333e+00	2.54500e+02
935	2.59288e+02	9.35000e+02	5.64048e+00	2.57500e+02
941	2.62359e+02	9.41000e+02	5.63746e+00	2.60500e+02
947	2.65429e+02	9.47000e+02	5.63452e+00	2.63500e+02
953	2.68440e+02	9.53000e+02	5.63174e+00	2.66500e+02
959	2.71480e+02	9.59000e+02	5.62852e+00	2.69500e+02
965	2.74532e+02	9.65000e+02	5.62475e+00	2.72500e+02
971	2.77595e+02	9.71000e+02	5.62051e+00	2.75500e+02
977	2.80580e+02	9.77000e+02	5.61552e+00	2.78500e+02
983	2.83586e+02	9.83000e+02	5.60972e+00	2.81500e+02
989	2.86587e+02	9.89000e+02	5.60283e+00	2.84500e+02
995	2.89613e+02	9.95000e+02	5.59468e+00	2.87500e+02
1001	2.92608e+02	1.00100e+03	5.58470e+00	2.90500e+02
1007	2.95638e+02	1.00700e+03	5.57270e+00	2.93500e+02
1013	2.98679e+02	1.01300e+03	5.55829e+00	2.96500e+02
1019	3.01710e+02	1.01900e+03	5.54175e+00	2.99500e+02
1025	3.04755e+02	1.02500e+03	5.52297e+00	3.02500e+02
1031	3.07796e+02	1.03100e+03	5.50224e+00	3.05500e+02
1037	3.10818e+02	1.03700e+03	5.47964e+00	3.08500e+02
1043	3.13859e+02	1.04300e+03	5.45576e+00	3.11500e+02
1049	3.16918e+02	1.04900e+03	5.43085e+00	3.14500e+02
1055	3.19956e+02	1.05500e+03	5.40562e+00	3.17500e+02
1061	3.22981e+02	1.06100e+03	5.37982e+00	3.20500e+02
1067	3.26017e+02	1.06700e+03	5.35323e+00	3.23500e+02
1073	3.29051e+02	1.07300e+03	5.32464e+00	3.26500e+02
1079	3.32092e+02	1.07900e+03	5.29278e+00	3.29500e+02
1085	3.35137e+02	1.08500e+03	5.25534e+00	3.32500e+02
1091	3.38160e+02	1.09100e+03	5.21123e+00	3.35500e+02
1097	3.41689e+02	1.09700e+03	5.15808e+00	3.38500e+02
1103	3.44871e+02	1.10300e+03	5.09481e+00	3.41500e+02
1109	3.47840e+02	1.10900e+03	5.01839e+00	3.44500e+02
1115	3.50942e+02	1.11500e+03	4.92924e+00	3.47500e+02
1121	3.53931e+02	1.12100e+03	4.82352e+00	3.50500e+02
1127	3.56905e+02	1.12700e+03	4.70208e+00	3.53500e+02
1133	3.59887e+02	1.13300e+03	4.56226e+00	3.56500e+02
1139	3.62944e+02	1.13900e+03	4.40579e+00	3.59500e+02
1145	3.65876e+02	1.14500e+03	4.23105e+00	3.62500e+02
1151	3.68810e+02	1.15100e+03	4.04215e+00	3.65500e+02
1157	3.71719e+02	1.15700e+03	3.83843e+00	3.68500e+02
1163	3.74590e+02	1.16300e+03	3.62280e+00	3.71500e+02
1169	3.77660e+02	1.16900e+03	3.39391e+00	3.74500e+02
1175	3.80952e+02	1.17500e+03	3.15249e+00	3.77500e+02
1181	3.83800e+02	1.18100e+03	2.89786e+00	3.80500e+02
1187	3.86791e+02	1.18700e+03	2.63682e+00	3.83500e+02
1193	3.89727e+02	1.19300e+03	2.36848e+00	3.86500e+02
1199	3.92767e+02	1.19900e+03	2.09833e+00	3.89500e+02
1205	3.95735e+02	1.20500e+03	1.83153e+00	3.92500e+02
1211	3.98704e+02	1.21100e+03	1.56763e+00	3.95500e+02
1217	4.01702e+02	1.21700e+03	1.31163e+00	3.98500e+02
1223	4.04632e+02	1.22300e+03	1.07012e+00	4.01500e+02
1229	4.07739e+02	1.22900e+03	8.53656e-01	4.04500e+02
1235	4.10736e+02	1.23500e+03	6.69860e-01	4.07500e+02
1241	4.13794e+02	1.24100e+03	5.21492e-01	4.10500e+02
1247	4.16759e+02	1.24700e+03	4.01965e-01	4.13500e+02
1253	4.19861e+02	1.25300e+03	3.08590e-01	4.16500e+02
1259	4.22980e+02	1.25900e+03	2.35133e-01	4.19500e+02
1265	4.26124e+02	1.26500e+03	1.81088e-01	4.22500e+02
1271	4.29226e+02	1.27100e+03	1.40782e-01	4.25500e+02
1277	4.32300e+02	1.27700e+03	1.13025e-01	4.28500e+02
1283	4.35670e+02	1.28300e+03	9.32211e-02	4.31500e+02
1289	4.38330e+02	1.28900e+03	8.01758e-02	4.34500e+02
1295	4.41048e+02	1.29500e+03	7.09694e-02	4.37500e+02
1301	4.43752e+02	1.30100e+03	6.48270e-02	4.40500e+02
1307	4.46574e+02	1.30700e+03	6.06331e-02	4.43500e+02
1313	4.49500e+02	1.31300e+03	5.80466e-02	4.46500e+02
1319	4.52420e+02	1.31900e+03	5.61130e-02	4.49500e+02
1325	4.55307e+02	1.32500e+03	5.46466e-02	4.52500e+02
1331	4.58234e+02	1.33100e+03	5.35784e-02	4.55500e+02
1337	4.61181e+02	1.33700e+03	5.32479e-02	4.58500e+02
1343	4.64211e+02	1.34300e+03	5.32741e-02	4.61500e+02
1349	4.67286e+02	1.34900e+03	5.32611e-02	4.64500e+02
1355	4.70271e+02	1.35500e+03	5.31041e-02	4.67500e+02
1361	4.72997e+02	1.36100e+03	5.29141e-02	4.70500e+02
1367	4.76311e+02	1.36700e+03	5.25310e-02	4.73500e+02
1373	4.79110e+02	1.37300e+03	5.25665e-02	4.76500e+02
1379	4.82368e+02	1.37900e+03	5.23549e-02	4.79500e+02
1385	4.85296e+02	1.38500e+03	5.24634e-02	4.82500e+02
1391	4.88271e+02	1.39100e+03	5.25167e-02	4.85500e+02
1397	4.91239e+02	1.39700e+03	5.22975e-02	4.88500e+02
1403	4.94153e+02	1.40300e+03	5.21309e-02	4.91500e+02
1409	4.97120e+02	1.40900e+03	5.19941e-02	4.94500e+02
1415	5.00942e+02	1.41500e+03	5.19745e-02	4.97500e+02
1421	5.03619e+02	1.42100e+03	5.19254e-02	5.00500e+02
1427	5.06357e+02	1.42700e+03	5.18370e-02	5.03500e+02
1433	5.09191e+02	1.43300e+03	5.18922e-02	5.06500e+02
1439	5.12095e+02	1.43900e+03	5.16065e-02	5.09500e+02
1445	5.14964e+02	1.44500e+03	5.14918e-02	5.12500e+02
1451	5.17889e+02	1.45100e+03	5.13240e-02	5.15500e+02
1457	5.20770e+02	1.45700e+03	5.16838e-02	5.18500e+02
1463	5.23631e+02	1.46300e+03	5.19249e-02	5.21500e+02
1469	5.26520e+02	1.46900e+03	5.16038e-02	5.24500e+02
1475	5.29482e+02	1.47500e+03	5.16509e-02	5.27500e+02
1481	5.32181e+02	1.48100e+03	5.17231e-02	5.30500e+02
1487	5.35128e+02	1.48700e+03	5.15288e-02	5.33500e+02
1493	5.37993e+02	1.49300e+03	5.15212e-02	5.36500e+02
1499	5.40817e+02	1.49900e+03	5.15161e-02	5.39500e+02
1505	5.43691e+02	1.50500e+03	5.13992e-02	5.42500e+02
1511	5.46519e+02	1.51100e+03	5.13715e-02	5.45500e+02
1517	5.49383e+02	1.51700e+03	5.12927e-02	5.48500e+02
1523	5.52274e+02	1.52300e+03	5.12374e-02	5.51500e+02
1529	5.55206e+02	1.52900e+03	5.10958e-02	5.54500e+02
1535	5.58152e+02	1.53500e+03	5.08537e-02	5.57500e+02
1541	5.61048e+02	1.54100e+03	5.12462e-02	5.60500e+02
1547	5.63969e+02	1.54700e+03	5.12928e-02	5.63500e+02
1553	5.66931e+02	1.55300e+03	5.11153e-02	5.66500e+02
1559	5.69806e+02	1.55900e+03	5.11800e-02	5.69500e+02
1565	5.72715e+02	1.56500e+03	5.12228e-02	5.72500e+02
1571	5.75683e+02	1.57100e+03	5.12274e-02	5.75500e+02
1577	5.78584e+02	1.57700e+03	5.11960e-02	5.78500e+02
1583	5.81493e+02	1.58300e+03	5.11488e-02	5.81500e+02
1589	5.84460e+02	1.58900e+03	5.12408e-02	5.84500e+02
1595	5.87404e+02	1.59500e+03	5.12395e-02	5.87500e+02
1601	5.90338e+02	1.60100e+03	5.11303e-02	5.90500e+02
1607	5.93290e+02	1.60700e+03	5.12309e-02	5.93500e+02
1613	5.96268e+02	1.61300e+03	5.14087e-02	5.96500e+02
1619	5.99303e+02	1.61900e+03	5.12742e-02	5.99500e+02
1625	6.02413e+02	1.62500e+03	5.11907e-02	6.02500e+02
1631	6.05443e+02	1.63100e+03	5.13374e-02	6.05500e+02
1637	6.08408e+02	1.63700e+03	5.11779e-02	6.08500e+02
1643	6.11346e+02	1.64300e+03	5.10305e-02	6.11500e+02
1649	6.14257e+02	1.64900e+03	5.12092e-02	6.14500e+02
1655	6.17189e+02	1.65500e+03	5.11993e-02	6.17500e+02
1661	6.20173e+02	1.66100e+03	5.10588e-02	6.20500e+02
1667	6.23152e+02	1.66700e+03	5.09481e-02	6.23500e+02
1673	6.26115e+02	1.67300e+03	5.09218e-02	6.26500e+02
1679	6.29127e+02	1.67900e+03	5.10296e-02	6.29500e+02
1685	6.32069e+02	1.68500e+03	5.10981e-02	6.32500e+02
1691	6.34987e+02	1.69100e+03	5.11560e-02	6.35500e+02
1697	6.37925e+02	1.69700e+03	5.11960e-02	6.38500e+02
1703	6.40865e+02	1.70300e+03	5.11620e-02	6.41500e+02
1709	6.43834e+02	1.70900e+03	5.10912e-02	6.44500e+02
1715	6.46857e+02	1.71500e+03	5.10212e-02	6.47500e+02
1721	6.49859e+02	1.72100e+03	5.07322e-02	6.50500e+02
1727	6.52855e+02	1.72700e+03	5.07615e-02	6.53500e+02
1733	6.55920e+02	1.73300e+03	5.13228e-02	6.56500e+02
1739	6.58914e+02	1.73900e+03	5.13614e-02	6.59500e+02
1745	6.61895e+02	1.74500e+03	5.10213e-02	6.62500e+02
1751	6.64865e+02	1.75100e+03	5.08983e-02	6.65500e+02
1757	6.67813e+02	1.75700e+03	5.10008e-02	6.68500e+02
1763	6.70728e+02	1.76300e+03	5.09893e-02	6.71500e+02
1769	6.73700e+02	1.76900e+03	5.08625e-02	6.74500e+02
1775	6.76657e+02	1.77500e+03	5.09143e-02	6.77500e+02
1781	6.79641e+02	1.78100e+03	5.08557e-02	6.80500e+02
1787	6.82627e+02	1.78700e+03	5.06603e-02	6.83500e+02
1793	6.85613e+02	1.79300e+03	5.06938e-02	6.86500e+02
1799	6.87520e+02	1.79900e+03	5.11029e-02	6.89500e+02
1805	6.89493e+02	1.80500e+03	5.10640e-02	6.92500e+02
1811	6.91114e+02	1.81100e+03	5.09187e-02	6.95500e+02
1817	6.92500e+02	1.81700e+03	5.09523e-02	6.98500e+02
1820	6.93125e+02	1.82000e+03	5.10333e-02	7.00000e+02