Folder: Pyrolysis_BESKID/Experiments/TUBS/tga_nonisotherm (part 56)

File: tga_dynamic_n2low20_dyn30_piece_3mg_r3.txt
Index	Ts	t	Weight	Tr
[#]	[°C]	[s]	[mg]	[°C]
680	1.30147e+02	6.80000e+02	3.00541	130.0
690	1.35247e+02	6.90000e+02	3.00528	135.0
700	1.40336e+02	7.00000e+02	3.00508	140.0
710	1.45419e+02	7.10000e+02	3.00461	145.0
720	1.50504e+02	7.20000e+02	3.00476	150.0
730	1.55594e+02	7.30000e+02	3.00424	155.0
740	1.60685e+02	7.40000e+02	3.00396	160.0
750	1.65777e+02	7.50000e+02	3.00353	165.0
760	1.70862e+02	7.60000e+02	3.00316	170.0
770	1.75961e+02	7.70000e+02	3.00257	175.0
780	1.81067e+02	7.80000e+02	3.00197	180.0
790	1.86180e+02	7.90000e+02	3.00136	185.0
800	1.91284e+02	8.00000e+02	3.00038	190.0
810	1.96417e+02	8.10000e+02	2.99882	195.0
820	2.01540e+02	8.20000e+02	2.99642	200.0
830	2.06670e+02	8.30000e+02	2.99333	205.0
840	2.11812e+02	8.40000e+02	2.98961	210.0
850	2.16918e+02	8.50000e+02	2.98545	215.0
860	2.22007e+02	8.60000e+02	2.98127	220.0
870	2.27132e+02	8.70000e+02	2.9772	225.0
880	2.32239e+02	8.80000e+02	2.973	230.0
890	2.37349e+02	8.90000e+02	2.9686	235.0
900	2.42435e+02	9.00000e+02	2.96408	240.0
910	2.47518e+02	9.10000e+02	2.95918	245.0
920	2.52628e+02	9.20000e+02	2.95423	250.0
930	2.57762e+02	9.30000e+02	2.94902	255.0
940	2.62845e+02	9.40000e+02	2.94379	260.0
950	2.67922e+02	9.50000e+02	2.93828	265.0
960	2.73040e+02	9.60000e+02	2.93264	270.0
970	2.78122e+02	9.70000e+02	2.92662	275.0
980	2.83264e+02	9.80000e+02	2.92025	280.0
990	2.88429e+02	9.90000e+02	2.91344	285.0
1000	2.93493e+02	1.00000e+03	2.90559	290.0
1010	2.98481e+02	1.01000e+03	2.89649	295.0
1020	3.03468e+02	1.02000e+03	2.8856	300.0
1030	3.08493e+02	1.03000e+03	2.87301	305.0
1040	3.13466e+02	1.04000e+03	2.85803	310.0
1050	3.18364e+02	1.05000e+03	2.84102	315.0
1060	3.23228e+02	1.06000e+03	2.8227	320.0
1070	3.28030e+02	1.07000e+03	2.80311	325.0
1080	3.32785e+02	1.08000e+03	2.78098	330.0
1090	3.37775e+02	1.09000e+03	2.75618	335.0
1100	3.42755e+02	1.10000e+03	2.72722	340.0
1110	3.47713e+02	1.11000e+03	2.68974	345.0
1120	3.52688e+02	1.12000e+03	2.63738	350.0
1130	3.57603e+02	1.13000e+03	2.56318	355.0
1140	3.62502e+02	1.14000e+03	2.45837	360.0
1150	3.67433e+02	1.15000e+03	2.32289	365.0
1160	3.72443e+02	1.16000e+03	2.15143	370.0
1170	3.77642e+02	1.17000e+03	1.94423	375.0
1180	3.82555e+02	1.18000e+03	1.7046	380.0
1190	3.87434e+02	1.19000e+03	1.44732	385.0
1200	3.92397e+02	1.20000e+03	1.18137	390.0
1210	3.97470e+02	1.21000e+03	0.918533	395.0
1220	4.02648e+02	1.22000e+03	0.667319	400.0
1230	4.07847e+02	1.23000e+03	0.447543	405.0
1240	4.12990e+02	1.24000e+03	0.284349	410.0
1250	4.18206e+02	1.25000e+03	0.175228	415.0
1260	4.23309e+02	1.26000e+03	0.108152	420.0
1270	4.28374e+02	1.27000e+03	0.0690409	425.0
1280	4.33397e+02	1.28000e+03	0.0474509	430.0
1290	4.38357e+02	1.29000e+03	0.0347234	435.0
1300	4.43326e+02	1.30000e+03	0.0269747	440.0
1310	4.48248e+02	1.31000e+03	0.021532	445.0
1320	4.53199e+02	1.32000e+03	0.0186529	450.0
1330	4.58145e+02	1.33000e+03	0.0171876	455.0
1340	4.63192e+02	1.34000e+03	0.016719	460.0
1350	4.68259e+02	1.35000e+03	0.0163545	465.0
1360	4.73233e+02	1.36000e+03	0.0158694	470.0
1370	4.78296e+02	1.37000e+03	0.0156679	475.0
1380	4.83362e+02	1.38000e+03	0.0155572	480.0
1390	4.88379e+02	1.39000e+03	0.0155314	485.0
1400	4.93306e+02	1.40000e+03	0.0152111	490.0
1410	4.98051e+02	1.41000e+03	0.0148421	495.0
1420	5.02938e+02	1.42000e+03	0.0148446	500.0
1430	5.07848e+02	1.43000e+03	0.0148275	505.0
1440	5.12803e+02	1.44000e+03	0.0148519	510.0
1450	5.17726e+02	1.45000e+03	0.0146763	515.0
1460	5.22690e+02	1.46000e+03	0.0144988	520.0
1470	5.27646e+02	1.47000e+03	0.0142858	525.0
1480	5.32604e+02	1.48000e+03	0.0143929	530.0
1490	5.37503e+02	1.49000e+03	0.0143131	535.0
1500	5.42488e+02	1.50000e+03	0.0141537	540.0
1510	5.47428e+02	1.51000e+03	0.0141536	545.0
1520	5.52226e+02	1.52000e+03	0.0141358	550.0
1530	5.57168e+02	1.53000e+03	0.0140109	555.0
1540	5.61995e+02	1.54000e+03	0.0139577	560.0
1550	5.66868e+02	1.55000e+03	0.0137125	565.0
1560	5.71792e+02	1.56000e+03	0.0134535	570.0
1570	5.76759e+02	1.57000e+03	0.0132217	575.0
1580	5.81703e+02	1.58000e+03	0.0131832	580.0
1590	5.86778e+02	1.59000e+03	0.0130865	585.0
1600	5.91774e+02	1.60000e+03	0.0129386	590.0
1610	5.96619e+02	1.61000e+03	0.0128115	595.0
1620	6.01510e+02	1.62000e+03	0.0128537	600.0
1630	6.06358e+02	1.63000e+03	0.0128693	605.0
1640	6.11282e+02	1.64000e+03	0.0124402	610.0
1650	6.16267e+02	1.65000e+03	0.0126098	615.0
1660	6.21250e+02	1.66000e+03	0.0127863	620.0
1670	6.26275e+02	1.67000e+03	0.0125232	625.0
1680	6.31401e+02	1.68000e+03	0.0122178	630.0
1690	6.36370e+02	1.69000e+03	0.0122835	635.0
1700	6.41422e+02	1.70000e+03	0.0120138	640.0
1710	6.46421e+02	1.71000e+03	0.0119269	645.0
1720	6.51472e+02	1.72000e+03	0.0118868	650.0
1730	6.56617e+02	1.73000e+03	0.0117355	655.0
1740	6.61772e+02	1.74000e+03	0.0114362	660.0
1750	6.66618e+02	1.75000e+03	0.0112329	665.0
1760	6.71517e+02	1.76000e+03	0.0115865	670.0
1770	6.76517e+02	1.77000e+03	0.0114577	675.0
1780	6.81498e+02	1.78000e+03	0.0114644	680.0
1790	6.86364e+02	1.79000e+03	0.0115567	685.0
1800	6.90091e+02	1.80000e+03	0.0115589	690.0
1810	6.93008e+02	1.81000e+03	0.0112868	695.0
1820	6.95097e+02	1.82000e+03	0.0113378	700.0
1830	6.96608e+02	1.83000e+03	0.011425	700.0
1840	6.97621e+02	1.84000e+03	0.0112398	700.0
1850	6.98376e+02	1.85000e+03	0.0113429	700.0
1860	6.98891e+02	1.86000e+03	0.0112489	700.0
1870	6.99346e+02	1.87000e+03	0.0110225	700.0
1880	6.99701e+02	1.88000e+03	0.0109348	700.0
1890	6.99981e+02	1.89000e+03	0.0110579	700.0
1900	7.00210e+02	1.90000e+03	0.0109703	700.0
1910	7.00404e+02	1.91000e+03	0.0110382	700.0
1920	7.00562e+02	1.92000e+03	0.0110149	700.0
1930	7.00689e+02	1.93000e+03	0.0109315	700.0
1940	7.00790e+02	1.94000e+03	0.0109223	700.0
1950	7.00878e+02	1.95000e+03	0.010821	700.0
1960	7.00953e+02	1.96000e+03	0.0109155	700.0
1970	7.01003e+02	1.97000e+03	0.0108477	700.0
1980	7.01058e+02	1.98000e+03	0.0106899	700.0
1990	7.01093e+02	1.99000e+03	0.0105555	700.0
2000	7.01130e+02	2.00000e+03	0.0105025	700.0
2010	7.01150e+02	2.01000e+03	0.0105682	700.0
2020	7.01171e+02	2.02000e+03	0.0104967	700.0
2030	7.01199e+02	2.03000e+03	0.0104717	700.0
2040	7.01211e+02	2.04000e+03	0.0104233	700.0
2050	7.01228e+02	2.05000e+03	0.0102984	700.0
2060	7.01245e+02	2.06000e+03	0.0101681	700.0
2070	7.01262e+02	2.07000e+03	0.0101592	700.0
2080	7.01272e+02	2.08000e+03	0.00987845	700.0
2090	7.01268e+02	2.09000e+03	0.00995338	700.0
2100	7.01275e+02	2.10000e+03	0.00990123	700.0
2110	7.01287e+02	2.11000e+03	0.00973785	700.0
2120	7.01293e+02	2.12000e+03	0.00977248	700.0
2130	7.01312e+02	2.13000e+03	0.00963749	700.0
2140	7.01313e+02	2.14000e+03	0.00959183	700.0
2150	7.01309e+02	2.15000e+03	0.00936484	700.0
2160	7.01321e+02	2.16000e+03	0.0094034	700.0
2170	7.01320e+02	2.17000e+03	0.00965128	700.0
2180	7.01317e+02	2.18000e+03	0.00955983	700.0
2190	7.01307e+02	2.19000e+03	0.00935713	700.0
2200	7.01313e+02	2.20000e+03	0.0093012	700.0
2210	7.01327e+02	2.21000e+03	0.00936735	700.0
2220	7.01315e+02	2.22000e+03	0.00924453	700.0
2230	7.01322e+02	2.23000e+03	0.00927204	700.0
2240	7.01316e+02	2.24000e+03	0.00912411	700.0
2250	7.01302e+02	2.25000e+03	0.00888618	700.0
2260	7.01307e+02	2.26000e+03	0.00876672	700.0
2270	7.01306e+02	2.27000e+03	0.0088433	700.0
2280	7.01298e+02	2.28000e+03	0.00872605	700.0
2290	7.01294e+02	2.29000e+03	0.00868765	700.0
2300	7.01294e+02	2.30000e+03	0.00874104	700.0
2310	7.01282e+02	2.31000e+03	0.00891107	700.0
2320	7.01289e+02	2.32000e+03	0.0087718	700.0
2330	7.01281e+02	2.33000e+03	0.00880692	700.0
2340	7.01281e+02	2.34000e+03	0.00867128	700.0
2350	7.01271e+02	2.35000e+03	0.00859598	700.0
2360	7.01269e+02	2.36000e+03	0.00862667	700.0
2370	7.01267e+02	2.37000e+03	0.00878342	700.0
2380	7.01258e+02	2.38000e+03	0.008668	700.0
2390	7.01249e+02	2.39000e+03	0.00845856	700.0
2400	7.01250e+02	2.40000e+03	0.00837228	700.0
2410	7.01247e+02	2.41000e+03	0.00854919	700.0
2420	7.01251e+02	2.42000e+03	0.00849981	700.0
2430	7.01250e+02	2.43000e+03	0.00801444	700.0
2440	7.01240e+02	2.44000e+03	0.00849346	700.0
2450	7.01240e+02	2.45000e+03	0.008559	700.0
2460	7.01244e+02	2.46000e+03	0.0084529	700.0
2470	7.01240e+02	2.47000e+03	0.00829222	700.0
2480	7.01235e+02	2.48000e+03	0.00862607	700.0
2490	7.01226e+02	2.49000e+03	0.00854994	700.0
2500	7.01223e+02	2.50000e+03	0.00849466	700.0
2510	7.01223e+02	2.51000e+03	0.00853729	700.0
2520	7.01222e+02	2.52000e+03	0.00857478	700.0
2530	7.01224e+02	2.53000e+03	0.00858479	700.0
2540	7.01222e+02	2.54000e+03	0.00866141	700.0
2550	7.01220e+02	2.55000e+03	0.00848763	700.0
2560	7.01214e+02	2.56000e+03	0.00853403	700.0
2570	7.01209e+02	2.57000e+03	0.0085014	700.0
2580	7.01206e+02	2.58000e+03	0.00848892	700.0
2590	7.01209e+02	2.59000e+03	0.00850883	700.0
2600	7.01208e+02	2.60000e+03	0.0084454	700.0
2610	7.01201e+02	2.61000e+03	0.00851038	700.0
2620	7.01208e+02	2.62000e+03	0.0085298	700.0
2630	7.01199e+02	2.63000e+03	0.00838245	700.0
2640	7.01199e+02	2.64000e+03	0.00855088	700.0
2650	7.01186e+02	2.65000e+03	0.00862333	700.0
2660	7.01190e+02	2.66000e+03	0.00851796	700.0
2670	7.01180e+02	2.67000e+03	0.008367	700.0
2680	7.01188e+02	2.68000e+03	0.00824425	700.0
2690	7.01180e+02	2.69000e+03	0.00850339	700.0
2700	7.01184e+02	2.70000e+03	0.00851429	700.0
2710	7.01181e+02	2.71000e+03	0.00854657	700.0
2720	7.01177e+02	2.72000e+03	0.00840058	700.0

File: tga_dynamic_n2low20_dyn30_powder_3mg_r1.txt
Index	Ts	t	Weight	Tr
[#]	[°C]	[s]	[mg]	[°C]
681	1.30453e+02	6.81000e+02	3.02804	130.5
691	1.35488e+02	6.91000e+02	3.02758	135.5
701	1.40524e+02	7.01000e+02	3.02699	140.5
711	1.45572e+02	7.11000e+02	3.02576	145.5
721	1.50610e+02	7.21000e+02	3.02477	150.5
731	1.55670e+02	7.31000e+02	3.02269	155.5
741	1.60715e+02	7.41000e+02	3.02055	160.5
751	1.65775e+02	7.51000e+02	3.01828	165.5
761	1.70843e+02	7.61000e+02	3.01591	170.5
771	1.75903e+02	7.71000e+02	3.01294	175.5
781	1.80972e+02	7.81000e+02	3.00932	180.5
791	1.86063e+02	7.91000e+02	3.00474	185.5
801	1.91138e+02	8.01000e+02	2.99768	190.5
811	1.96229e+02	8.11000e+02	2.98837	195.5
821	2.01319e+02	8.21000e+02	2.97771	200.5
831	2.06411e+02	8.31000e+02	2.96807	205.5
841	2.11516e+02	8.41000e+02	2.96079	210.5
851	2.16629e+02	8.51000e+02	2.95608	215.5
861	2.21729e+02	8.61000e+02	2.95276	220.5
871	2.26850e+02	8.71000e+02	2.9499	225.5
881	2.31952e+02	8.81000e+02	2.94674	230.5
891	2.37039e+02	8.91000e+02	2.94342	235.5
901	2.42085e+02	9.01000e+02	2.93972	240.5
911	2.47146e+02	9.11000e+02	2.9361	245.5
921	2.52288e+02	9.21000e+02	2.93291	250.5
931	2.57446e+02	9.31000e+02	2.92972	255.5
941	2.62682e+02	9.41000e+02	2.92665	260.5
951	2.67913e+02	9.51000e+02	2.9238	265.5
961	2.73050e+02	9.61000e+02	2.9205	270.5
971	2.78209e+02	9.71000e+02	2.91688	275.5
981	2.83230e+02	9.81000e+02	2.91227	280.5
991	2.88583e+02	9.91000e+02	2.90621	285.5
1001	2.93778e+02	1.00100e+03	2.8976	290.5
1011	2.98889e+02	1.01100e+03	2.88615	295.5
1021	3.03949e+02	1.02100e+03	2.87084	300.5
1031	3.09028e+02	1.03100e+03	2.85214	305.5
1041	3.14102e+02	1.04100e+03	2.83028	310.5
1051	3.19221e+02	1.05100e+03	2.80647	315.5
1061	3.24219e+02	1.06100e+03	2.78175	320.5
1071	3.29304e+02	1.07100e+03	2.75555	325.5
1081	3.34684e+02	1.08100e+03	2.72447	330.5
1091	3.39837e+02	1.09100e+03	2.6843	335.5
1101	3.44655e+02	1.10100e+03	2.62974	340.5
1111	3.49237e+02	1.11100e+03	2.55735	345.5
1121	3.54380e+02	1.12100e+03	2.46231	350.5
1131	3.59062e+02	1.13100e+03	2.34306	355.5
1141	3.63889e+02	1.14100e+03	2.19706	360.5
1151	3.68792e+02	1.15100e+03	2.0278	365.5
1161	3.73948e+02	1.16100e+03	1.83663	370.5
1171	3.78978e+02	1.17100e+03	1.62679	375.5
1181	3.83828e+02	1.18100e+03	1.40364	380.5
1191	3.88956e+02	1.19100e+03	1.1783	385.5
1201	3.93979e+02	1.20100e+03	0.961456	390.5
1211	3.98838e+02	1.21100e+03	0.75342	395.5
1221	4.04078e+02	1.22100e+03	0.561584	400.5
1231	4.09485e+02	1.23100e+03	0.397784	405.5
1241	4.14850e+02	1.24100e+03	0.277115	410.5
1251	4.20014e+02	1.25100e+03	0.192437	415.5
1261	4.24861e+02	1.26100e+03	0.138759	420.5
1271	4.30230e+02	1.27100e+03	0.10667	425.5
1281	4.35149e+02	1.28100e+03	0.0898644	430.5
1291	4.40453e+02	1.29100e+03	0.0810252	435.5
1301	4.45596e+02	1.30100e+03	0.0764349	440.5
1311	4.50344e+02	1.31100e+03	0.073421	445.5
1321	4.54934e+02	1.32100e+03	0.0719958	450.5
1331	4.59590e+02	1.33100e+03	0.0711698	455.5
1341	4.64275e+02	1.34100e+03	0.0708144	460.5
1351	4.69145e+02	1.35100e+03	0.0706817	465.5
1361	4.73911e+02	1.36100e+03	0.0701939	470.5
1371	4.78865e+02	1.37100e+03	0.0701436	475.5
1381	4.83693e+02	1.38100e+03	0.0701288	480.5
1391	4.88503e+02	1.39100e+03	0.0700331	485.5
1401	4.93824e+02	1.40100e+03	0.06972	490.5
1411	4.98835e+02	1.41100e+03	0.069454	495.5
1421	5.03789e+02	1.42100e+03	0.0693958	500.5
1431	5.08806e+02	1.43100e+03	0.0692933	505.5
1441	5.13650e+02	1.44100e+03	0.0694159	510.5
1451	5.18413e+02	1.45100e+03	0.0694036	515.5
1461	5.23289e+02	1.46100e+03	0.0692659	520.5
1471	5.28296e+02	1.47100e+03	0.0690838	525.5
1481	5.33596e+02	1.48100e+03	0.0691839	530.5
1491	5.38588e+02	1.49100e+03	0.0692411	535.5
1501	5.43274e+02	1.50100e+03	0.0690926	540.5
1511	5.47808e+02	1.51100e+03	0.0692322	545.5
1521	5.52701e+02	1.52100e+03	0.0692471	550.5
1531	5.57653e+02	1.53100e+03	0.0692081	555.5
1541	5.62508e+02	1.54100e+03	0.0691436	560.5
1551	5.67387e+02	1.55100e+03	0.0689851	565.5
1561	5.72367e+02	1.56100e+03	0.0688194	570.5
1571	5.77596e+02	1.57100e+03	0.0687709	575.5
1581	5.82773e+02	1.58100e+03	0.0688369	580.5
1591	5.87649e+02	1.59100e+03	0.0686959	585.5
1601	5.92502e+02	1.60100e+03	0.0685452	590.5
1611	5.97325e+02	1.61100e+03	0.0685673	595.5
1621	6.02705e+02	1.62100e+03	0.0689165	600.5
1631	6.08064e+02	1.63100e+03	0.0688143	605.5
1641	6.12845e+02	1.64100e+03	0.0683888	610.5
1651	6.17759e+02	1.65100e+03	0.0686758	615.5
1661	6.22863e+02	1.66100e+03	0.068702	620.5
1671	6.27939e+02	1.67100e+03	0.0687002	625.5
1681	6.32831e+02	1.68100e+03	0.0683909	630.5
1691	6.37636e+02	1.69100e+03	0.0685273	635.5
1701	6.42460e+02	1.70100e+03	0.0683252	640.5
1711	6.47320e+02	1.71100e+03	0.0681413	645.5
1721	6.52275e+02	1.72100e+03	0.0682171	650.5
1731	6.57208e+02	1.73100e+03	0.0681682	655.5
1741	6.62149e+02	1.74100e+03	0.0679084	660.5
1751	6.67092e+02	1.75100e+03	0.0678804	665.5
1761	6.71949e+02	1.76100e+03	0.0680819	670.5
1771	6.76866e+02	1.77100e+03	0.0679218	675.5
1781	6.81795e+02	1.78100e+03	0.0680386	680.5
1791	6.86733e+02	1.79100e+03	0.0680186	685.5
1801	6.90336e+02	1.80100e+03	0.0681774	690.5
1811	6.93199e+02	1.81100e+03	0.0680568	695.5
1821	6.95316e+02	1.82100e+03	0.0681408	700.0
1831	6.96912e+02	1.83100e+03	0.0681613	700.0
1841	6.98059e+02	1.84100e+03	0.0680464	700.0
1851	6.98864e+02	1.85100e+03	0.0681167	700.0
1861	6.99486e+02	1.86100e+03	0.0680652	700.0
1871	6.99964e+02	1.87100e+03	0.0679165	700.0
1881	7.00307e+02	1.88100e+03	0.0677968	700.0
1891	7.00551e+02	1.89100e+03	0.0680699	700.0
1901	7.00764e+02	1.90100e+03	0.0681885	700.0
1911	7.00932e+02	1.91100e+03	0.0679841	700.0
1921	7.01058e+02	1.92100e+03	0.0678345	700.0
1931	7.01129e+02	1.93100e+03	0.0679034	700.0
1941	7.01191e+02	1.94100e+03	0.0681635	700.0
1951	7.01249e+02	1.95100e+03	0.0680832	700.0
1961	7.01273e+02	1.96100e+03	0.0681193	700.0
1971	7.01305e+02	1.97100e+03	0.0681111	700.0
1981	7.01340e+02	1.98100e+03	0.0679751	700.0
1991	7.01352e+02	1.99100e+03	0.0678371	700.0
2001	7.01375e+02	2.00100e+03	0.0679632	700.0
2011	7.01370e+02	2.01100e+03	0.0679723	700.0
2021	7.01388e+02	2.02100e+03	0.0680422	700.0
2031	7.01388e+02	2.03100e+03	0.0679769	700.0
2041	7.01381e+02	2.04100e+03	0.0680352	700.0
2051	7.01380e+02	2.05100e+03	0.0680444	700.0
2061	7.01372e+02	2.06100e+03	0.0680417	700.0
2071	7.01362e+02	2.07100e+03	0.0680387	700.0
2081	7.01349e+02	2.08100e+03	0.0678433	700.0
2091	7.01344e+02	2.09100e+03	0.0679622	700.0
2101	7.01335e+02	2.10100e+03	0.0680636	700.0
2111	7.01325e+02	2.11100e+03	0.0678687	700.0
2121	7.01312e+02	2.12100e+03	0.0677823	700.0
2131	7.01305e+02	2.13100e+03	0.0676624	700.0
2141	7.01287e+02	2.14100e+03	0.0678	700.0
2151	7.01266e+02	2.15100e+03	0.0677065	700.0
2161	7.01256e+02	2.16100e+03	0.0676514	700.0
2171	7.01238e+02	2.17100e+03	0.0679649	700.0
2181	7.01234e+02	2.18100e+03	0.0678573	700.0
2191	7.01223e+02	2.19100e+03	0.0678422	700.0
2201	7.01211e+02	2.20100e+03	0.067895	700.0
2211	7.01195e+02	2.21100e+03	0.0679908	700.0
2221	7.01183e+02	2.22100e+03	0.0680239	700.0
2231	7.01165e+02	2.23100e+03	0.0680189	700.0
2241	7.01161e+02	2.24100e+03	0.0679268	700.0
2251	7.01141e+02	2.25100e+03	0.0678303	700.0
2261	7.01126e+02	2.26100e+03	0.0677537	700.0
2271	7.01123e+02	2.27100e+03	0.06777	700.0
2281	7.01116e+02	2.28100e+03	0.0676696	700.0
2291	7.01095e+02	2.29100e+03	0.0677526	700.0
2301	7.01099e+02	2.30100e+03	0.0676293	700.0
2311	7.01082e+02	2.31100e+03	0.0678113	700.0
2321	7.01057e+02	2.32100e+03	0.0676839	700.0
2331	7.01059e+02	2.33100e+03	0.0676244	700.0
2341	7.01039e+02	2.34100e+03	0.0675816	700.0
2351	7.01030e+02	2.35100e+03	0.0676012	700.0
2361	7.01022e+02	2.36100e+03	0.0676089	700.0
2371	7.01022e+02	2.37100e+03	0.0677283	700.0
2381	7.01005e+02	2.38100e+03	0.0676673	700.0
2391	7.01004e+02	2.39100e+03	0.0675165	700.0
2401	7.00989e+02	2.40100e+03	0.067407	700.0
2411	7.00993e+02	2.41100e+03	0.0675563	700.0
2421	7.00975e+02	2.42100e+03	0.0676238	700.0
2431	7.00963e+02	2.43100e+03	0.0671271	700.0
2441	7.00955e+02	2.44100e+03	0.0675188	700.0
2451	7.00960e+02	2.45100e+03	0.0676606	700.0
2461	7.00944e+02	2.46100e+03	0.0675162	700.0
2471	7.00945e+02	2.47100e+03	0.0674205	700.0
2481	7.00939e+02	2.48100e+03	0.0675103	700.0
2491	7.00935e+02	2.49100e+03	0.0675054	700.0
2501	7.00923e+02	2.50100e+03	0.0675204	700.0
2511	7.00926e+02	2.51100e+03	0.0674834	700.0
2521	7.00913e+02	2.52100e+03	0.067526	700.0
2531	7.00901e+02	2.53100e+03	0.0675909	700.0
2541	7.00895e+02	2.54100e+03	0.067592	700.0
2551	7.00891e+02	2.55100e+03	0.0673637	700.0
2561	7.00877e+02	2.56100e+03	0.0674154	700.0
2571	7.00878e+02	2.57100e+03	0.0673339	700.0
2581	7.00863e+02	2.58100e+03	0.0673253	700.0
2591	7.00859e+02	2.59100e+03	0.0673646	700.0
2601	7.00862e+02	2.60100e+03	0.0673112	700.0
2611	7.00855e+02	2.61100e+03	0.0672956	700.0
2621	7.00843e+02	2.62100e+03	0.067238	700.0
2631	7.00842e+02	2.63100e+03	0.0672963	700.0
2641	7.00828e+02	2.64100e+03	0.0674378	700.0
2651	7.00839e+02	2.65100e+03	0.0675766	700.0
2661	7.00830e+02	2.66100e+03	0.0674664	700.0
2671	7.00817e+02	2.67100e+03	0.0673019	700.0
2681	7.00814e+02	2.68100e+03	0.0672895	700.0
2691	7.00814e+02	2.69100e+03	0.0675466	700.0
2701	7.00814e+02	2.70100e+03	0.06749	700.0
2711	7.00819e+02	2.71100e+03	0.0673716	700.0
2720	7.00805e+02	2.72000e+03	0.0671956	700.0