Folder: Pyrolysis_BESKID/Experiments/TUBS/tga_nonisotherm (part 22)

File: tga_dynamic_n2_dyn30_piece_1mg_r2.txt
index	ts	t	weight	tr
[#]	[°C]	[s]	[mg]	[°C]
683	1.31221e+02	6.83000e+02	1.02333e+00	1.31500e+02
690	1.34756e+02	6.90000e+02	1.02315e+00	1.35000e+02
697	1.38276e+02	6.97000e+02	1.02294e+00	1.38500e+02
704	1.41800e+02	7.04000e+02	1.02286e+00	1.42000e+02
711	1.45322e+02	7.11000e+02	1.02284e+00	1.45500e+02
718	1.48845e+02	7.18000e+02	1.02284e+00	1.49000e+02
725	1.52376e+02	7.25000e+02	1.02269e+00	1.52500e+02
732	1.55911e+02	7.32000e+02	1.02248e+00	1.56000e+02
739	1.59447e+02	7.39000e+02	1.02232e+00	1.59500e+02
746	1.62979e+02	7.46000e+02	1.02224e+00	1.63000e+02
753	1.66525e+02	7.53000e+02	1.02218e+00	1.66500e+02
760	1.70058e+02	7.60000e+02	1.02200e+00	1.70000e+02
767	1.73610e+02	7.67000e+02	1.02174e+00	1.73500e+02
774	1.77165e+02	7.74000e+02	1.02162e+00	1.77000e+02
781	1.80712e+02	7.81000e+02	1.02141e+00	1.80500e+02
788	1.84280e+02	7.88000e+02	1.02118e+00	1.84000e+02
795	1.87828e+02	7.95000e+02	1.02092e+00	1.87500e+02
802	1.91399e+02	8.02000e+02	1.02044e+00	1.91000e+02
809	1.94969e+02	8.09000e+02	1.01984e+00	1.94500e+02
816	1.98531e+02	8.16000e+02	1.01922e+00	1.98000e+02
823	2.02098e+02	8.23000e+02	1.01859e+00	2.01500e+02
830	2.05686e+02	8.30000e+02	1.01781e+00	2.05000e+02
837	2.09227e+02	8.37000e+02	1.01679e+00	2.08500e+02
844	2.12783e+02	8.44000e+02	1.01568e+00	2.12000e+02
851	2.16341e+02	8.51000e+02	1.01453e+00	2.15500e+02
858	2.19893e+02	8.58000e+02	1.01357e+00	2.19000e+02
865	2.23464e+02	8.65000e+02	1.01257e+00	2.22500e+02
872	2.27014e+02	8.72000e+02	1.01171e+00	2.26000e+02
879	2.30600e+02	8.79000e+02	1.01057e+00	2.29500e+02
886	2.34157e+02	8.86000e+02	1.00932e+00	2.33000e+02
893	2.37730e+02	8.93000e+02	1.00808e+00	2.36500e+02
900	2.41296e+02	9.00000e+02	1.00696e+00	2.40000e+02
907	2.44893e+02	9.07000e+02	1.00580e+00	2.43500e+02
914	2.48458e+02	9.14000e+02	1.00446e+00	2.47000e+02
921	2.52053e+02	9.21000e+02	1.00322e+00	2.50500e+02
928	2.55622e+02	9.28000e+02	1.00196e+00	2.54000e+02
935	2.59179e+02	9.35000e+02	1.00062e+00	2.57500e+02
942	2.62750e+02	9.42000e+02	9.99271e-01	2.61000e+02
949	2.66327e+02	9.49000e+02	9.97891e-01	2.64500e+02
956	2.69899e+02	9.56000e+02	9.96592e-01	2.68000e+02
963	2.73495e+02	9.63000e+02	9.95176e-01	2.71500e+02
970	2.77075e+02	9.70000e+02	9.93741e-01	2.75000e+02
977	2.80642e+02	9.77000e+02	9.92085e-01	2.78500e+02
984	2.84184e+02	9.84000e+02	9.90441e-01	2.82000e+02
991	2.87718e+02	9.91000e+02	9.88752e-01	2.85500e+02
998	2.91239e+02	9.98000e+02	9.86874e-01	2.89000e+02
1005	2.94796e+02	1.00500e+03	9.84751e-01	2.92500e+02
1012	2.98342e+02	1.01200e+03	9.82234e-01	2.96000e+02
1019	3.01903e+02	1.01900e+03	9.79511e-01	2.99500e+02
1026	3.05378e+02	1.02600e+03	9.76565e-01	3.03000e+02
1033	3.08864e+02	1.03300e+03	9.73309e-01	3.06500e+02
1040	3.12317e+02	1.04000e+03	9.69280e-01	3.10000e+02
1047	3.15756e+02	1.04700e+03	9.64361e-01	3.13500e+02
1054	3.19189e+02	1.05400e+03	9.58579e-01	3.17000e+02
1061	3.22662e+02	1.06100e+03	9.52251e-01	3.20500e+02
1068	3.26127e+02	1.06800e+03	9.45870e-01	3.24000e+02
1075	3.29632e+02	1.07500e+03	9.39897e-01	3.27500e+02
1082	3.33129e+02	1.08200e+03	9.34177e-01	3.31000e+02
1089	3.36588e+02	1.08900e+03	9.28114e-01	3.34500e+02
1096	3.40069e+02	1.09600e+03	9.21389e-01	3.38000e+02
1103	3.43562e+02	1.10300e+03	9.13484e-01	3.41500e+02
1110	3.47060e+02	1.11000e+03	9.03940e-01	3.45000e+02
1117	3.50579e+02	1.11700e+03	8.91615e-01	3.48500e+02
1124	3.54088e+02	1.12400e+03	8.75620e-01	3.52000e+02
1131	3.57541e+02	1.13100e+03	8.56413e-01	3.55500e+02
1138	3.61035e+02	1.13800e+03	8.31593e-01	3.59000e+02
1145	3.64522e+02	1.14500e+03	8.00370e-01	3.62500e+02
1152	3.68021e+02	1.15200e+03	7.62962e-01	3.66000e+02
1159	3.71511e+02	1.15900e+03	7.19307e-01	3.69500e+02
1166	3.74928e+02	1.16600e+03	6.68694e-01	3.73000e+02
1173	3.78384e+02	1.17300e+03	6.11774e-01	3.76500e+02
1180	3.81890e+02	1.18000e+03	5.49639e-01	3.80000e+02
1187	3.85360e+02	1.18700e+03	4.85196e-01	3.83500e+02
1194	3.88886e+02	1.19400e+03	4.20130e-01	3.87000e+02
1201	3.92533e+02	1.20100e+03	3.56168e-01	3.90500e+02
1208	3.96082e+02	1.20800e+03	2.92839e-01	3.94000e+02
1215	3.99648e+02	1.21500e+03	2.29902e-01	3.97500e+02
1222	4.03188e+02	1.22200e+03	1.71851e-01	4.01000e+02
1229	4.06642e+02	1.22900e+03	1.21790e-01	4.04500e+02
1236	4.10199e+02	1.23600e+03	8.13083e-02	4.08000e+02
1243	4.13699e+02	1.24300e+03	5.05750e-02	4.11500e+02
1250	4.17109e+02	1.25000e+03	2.86380e-02	4.15000e+02
1257	4.20587e+02	1.25700e+03	1.31122e-02	4.18500e+02
1264	4.24025e+02	1.26400e+03	2.55844e-03	4.22000e+02
1271	4.27402e+02	1.27100e+03	-4.63108e-03	4.25500e+02
1278	4.30797e+02	1.27800e+03	-9.47071e-03	4.29000e+02
1285	4.34215e+02	1.28500e+03	-1.28654e-02	4.32500e+02
1292	4.37617e+02	1.29200e+03	-1.52822e-02	4.36000e+02
1299	4.41051e+02	1.29900e+03	-1.71257e-02	4.39500e+02
1306	4.44416e+02	1.30600e+03	-1.85784e-02	4.43000e+02
1313	4.47794e+02	1.31300e+03	-1.95400e-02	4.46500e+02
1320	4.51179e+02	1.32000e+03	-2.02360e-02	4.50000e+02
1327	4.54499e+02	1.32700e+03	-2.07074e-02	4.53500e+02
1334	4.57848e+02	1.33400e+03	-2.10883e-02	4.57000e+02
1341	4.61236e+02	1.34100e+03	-2.12084e-02	4.60500e+02
1348	4.64628e+02	1.34800e+03	-2.12971e-02	4.64000e+02
1355	4.68024e+02	1.35500e+03	-2.15775e-02	4.67500e+02
1362	4.71417e+02	1.36200e+03	-2.16923e-02	4.71000e+02
1369	4.74836e+02	1.36900e+03	-2.18151e-02	4.74500e+02
1376	4.78220e+02	1.37600e+03	-2.19588e-02	4.78000e+02
1383	4.81621e+02	1.38300e+03	-2.21196e-02	4.81500e+02
1390	4.85015e+02	1.39000e+03	-2.24364e-02	4.85000e+02
1397	4.88442e+02	1.39700e+03	-2.25663e-02	4.88500e+02
1404	4.91871e+02	1.40400e+03	-2.27079e-02	4.92000e+02
1411	4.95381e+02	1.41100e+03	-2.29919e-02	4.95500e+02
1418	4.98805e+02	1.41800e+03	-2.31276e-02	4.99000e+02
1425	5.02219e+02	1.42500e+03	-2.32190e-02	5.02500e+02
1432	5.05625e+02	1.43200e+03	-2.33868e-02	5.06000e+02
1439	5.09057e+02	1.43900e+03	-2.33845e-02	5.09500e+02
1446	5.12494e+02	1.44600e+03	-2.35979e-02	5.13000e+02
1453	5.15924e+02	1.45300e+03	-2.39461e-02	5.16500e+02
1460	5.19355e+02	1.46000e+03	-2.35997e-02	5.20000e+02
1467	5.22802e+02	1.46700e+03	-2.36008e-02	5.23500e+02
1474	5.26225e+02	1.47400e+03	-2.37840e-02	5.27000e+02
1481	5.29652e+02	1.48100e+03	-2.38265e-02	5.30500e+02
1488	5.33077e+02	1.48800e+03	-2.39622e-02	5.34000e+02
1495	5.36531e+02	1.49500e+03	-2.40987e-02	5.37500e+02
1502	5.39997e+02	1.50200e+03	-2.41734e-02	5.41000e+02
1509	5.43456e+02	1.50900e+03	-2.41437e-02	5.44500e+02
1516	5.46930e+02	1.51600e+03	-2.40729e-02	5.48000e+02
1523	5.50401e+02	1.52300e+03	-2.41854e-02	5.51500e+02
1530	5.53857e+02	1.53000e+03	-2.43375e-02	5.55000e+02
1537	5.57327e+02	1.53700e+03	-2.44527e-02	5.58500e+02
1544	5.60792e+02	1.54400e+03	-2.40692e-02	5.62000e+02
1551	5.64274e+02	1.55100e+03	-2.41412e-02	5.65500e+02
1558	5.67755e+02	1.55800e+03	-2.41319e-02	5.69000e+02
1565	5.71248e+02	1.56500e+03	-2.42807e-02	5.72500e+02
1572	5.74753e+02	1.57200e+03	-2.42128e-02	5.76000e+02
1579	5.78339e+02	1.57900e+03	-2.41551e-02	5.79500e+02
1586	5.84404e+02	1.58600e+03	-2.41194e-02	5.83000e+02
1593	5.87514e+02	1.59300e+03	-2.42082e-02	5.86500e+02
1600	5.90819e+02	1.60000e+03	-2.42557e-02	5.90000e+02
1607	5.94212e+02	1.60700e+03	-2.44352e-02	5.93500e+02
1614	5.97584e+02	1.61400e+03	-2.44582e-02	5.97000e+02
1621	6.00958e+02	1.62100e+03	-2.43950e-02	6.00500e+02
1628	6.04349e+02	1.62800e+03	-2.44310e-02	6.04000e+02
1635	6.07734e+02	1.63500e+03	-2.44763e-02	6.07500e+02
1642	6.11143e+02	1.64200e+03	-2.45391e-02	6.11000e+02
1649	6.14547e+02	1.64900e+03	-2.45661e-02	6.14500e+02
1656	6.17954e+02	1.65600e+03	-2.45156e-02	6.18000e+02
1663	6.21361e+02	1.66300e+03	-2.45619e-02	6.21500e+02
1670	6.24773e+02	1.67000e+03	-2.46242e-02	6.25000e+02
1677	6.28198e+02	1.67700e+03	-2.45914e-02	6.28500e+02
1684	6.31620e+02	1.68400e+03	-2.47488e-02	6.32000e+02
1691	6.35074e+02	1.69100e+03	-2.48207e-02	6.35500e+02
1698	6.38504e+02	1.69800e+03	-2.47982e-02	6.39000e+02
1705	6.41940e+02	1.70500e+03	-2.47737e-02	6.42500e+02
1712	6.45365e+02	1.71200e+03	-2.48159e-02	6.46000e+02
1719	6.48791e+02	1.71900e+03	-2.49308e-02	6.49500e+02
1726	6.52224e+02	1.72600e+03	-2.51887e-02	6.53000e+02
1733	6.55665e+02	1.73300e+03	-2.46465e-02	6.56500e+02
1740	6.59118e+02	1.74000e+03	-2.47111e-02	6.60000e+02
1747	6.62574e+02	1.74700e+03	-2.50103e-02	6.63500e+02
1754	6.66034e+02	1.75400e+03	-2.49962e-02	6.67000e+02
1761	6.69465e+02	1.76100e+03	-2.48643e-02	6.70500e+02
1768	6.72919e+02	1.76800e+03	-2.49205e-02	6.74000e+02
1775	6.76381e+02	1.77500e+03	-2.49136e-02	6.77500e+02
1782	6.79832e+02	1.78200e+03	-2.49537e-02	6.81000e+02
1789	6.83292e+02	1.78900e+03	-2.53738e-02	6.84500e+02
1796	6.86051e+02	1.79600e+03	-2.50605e-02	6.88000e+02
1803	6.88459e+02	1.80300e+03	-2.46341e-02	6.91500e+02
1810	6.90452e+02	1.81000e+03	-2.49261e-02	6.95000e+02
1817	6.92085e+02	1.81700e+03	-2.49893e-02	6.98500e+02
1820	6.92678e+02	1.82000e+03	-2.49153e-02	7.00000e+02

File: tga_dynamic_n2_dyn30_piece_1mg_r3.txt
index	ts	t	weight	tr
[#]	[°C]	[s]	[mg]	[°C]
683	1.30867e+02	6.83000e+02	9.66141e-01	1.31500e+02
690	1.34385e+02	6.90000e+02	9.65994e-01	1.35000e+02
697	1.37895e+02	6.97000e+02	9.65976e-01	1.38500e+02
704	1.41401e+02	7.04000e+02	9.65937e-01	1.42000e+02
711	1.44913e+02	7.11000e+02	9.65988e-01	1.45500e+02
718	1.48417e+02	7.18000e+02	9.65945e-01	1.49000e+02
725	1.51925e+02	7.25000e+02	9.65863e-01	1.52500e+02
732	1.55443e+02	7.32000e+02	9.65728e-01	1.56000e+02
739	1.58952e+02	7.39000e+02	9.65542e-01	1.59500e+02
746	1.62463e+02	7.46000e+02	9.65301e-01	1.63000e+02
753	1.65988e+02	7.53000e+02	9.65147e-01	1.66500e+02
760	1.69522e+02	7.60000e+02	9.65052e-01	1.70000e+02
767	1.73036e+02	7.67000e+02	9.64894e-01	1.73500e+02
774	1.76582e+02	7.74000e+02	9.64779e-01	1.77000e+02
781	1.80111e+02	7.81000e+02	9.64723e-01	1.80500e+02
788	1.83634e+02	7.88000e+02	9.64706e-01	1.84000e+02
795	1.87170e+02	7.95000e+02	9.64499e-01	1.87500e+02
802	1.90701e+02	8.02000e+02	9.64150e-01	1.91000e+02
809	1.94243e+02	8.09000e+02	9.63650e-01	1.94500e+02
816	1.97783e+02	8.16000e+02	9.63208e-01	1.98000e+02
823	2.01336e+02	8.23000e+02	9.62625e-01	2.01500e+02
830	2.04882e+02	8.30000e+02	9.61958e-01	2.05000e+02
837	2.08437e+02	8.37000e+02	9.61160e-01	2.08500e+02
844	2.11981e+02	8.44000e+02	9.60140e-01	2.12000e+02
851	2.15558e+02	8.51000e+02	9.59327e-01	2.15500e+02
858	2.19101e+02	8.58000e+02	9.58514e-01	2.19000e+02
865	2.22660e+02	8.65000e+02	9.57619e-01	2.22500e+02
872	2.26200e+02	8.72000e+02	9.56728e-01	2.26000e+02
879	2.29740e+02	8.79000e+02	9.55738e-01	2.29500e+02
886	2.33280e+02	8.86000e+02	9.54561e-01	2.33000e+02
893	2.36803e+02	8.93000e+02	9.53633e-01	2.36500e+02
900	2.40347e+02	9.00000e+02	9.52692e-01	2.40000e+02
907	2.43911e+02	9.07000e+02	9.51565e-01	2.43500e+02
914	2.47458e+02	9.14000e+02	9.50222e-01	2.47000e+02
921	2.51016e+02	9.21000e+02	9.48987e-01	2.50500e+02
928	2.54563e+02	9.28000e+02	9.47888e-01	2.54000e+02
935	2.58118e+02	9.35000e+02	9.46630e-01	2.57500e+02
942	2.61665e+02	9.42000e+02	9.45257e-01	2.61000e+02
949	2.65224e+02	9.49000e+02	9.43939e-01	2.64500e+02
956	2.68789e+02	9.56000e+02	9.42807e-01	2.68000e+02
963	2.72363e+02	9.63000e+02	9.41428e-01	2.71500e+02
970	2.75909e+02	9.70000e+02	9.39911e-01	2.75000e+02
977	2.79468e+02	9.77000e+02	9.38387e-01	2.78500e+02
984	2.83013e+02	9.84000e+02	9.36685e-01	2.82000e+02
991	2.86560e+02	9.91000e+02	9.35148e-01	2.85500e+02
998	2.90116e+02	9.98000e+02	9.33579e-01	2.89000e+02
1005	2.93646e+02	1.00500e+03	9.31677e-01	2.92500e+02
1012	2.97158e+02	1.01200e+03	9.29367e-01	2.96000e+02
1019	3.00674e+02	1.01900e+03	9.26954e-01	2.99500e+02
1026	3.04218e+02	1.02600e+03	9.24428e-01	3.03000e+02
1033	3.07760e+02	1.03300e+03	9.21755e-01	3.06500e+02
1040	3.11278e+02	1.04000e+03	9.18753e-01	3.10000e+02
1047	3.14809e+02	1.04700e+03	9.15147e-01	3.13500e+02
1054	3.18362e+02	1.05400e+03	9.11314e-01	3.17000e+02
1061	3.21960e+02	1.06100e+03	9.07414e-01	3.20500e+02
1068	3.25453e+02	1.06800e+03	9.03495e-01	3.24000e+02
1075	3.28987e+02	1.07500e+03	8.99501e-01	3.27500e+02
1082	3.32486e+02	1.08200e+03	8.95073e-01	3.31000e+02
1089	3.36019e+02	1.08900e+03	8.90181e-01	3.34500e+02
1096	3.39549e+02	1.09600e+03	8.84521e-01	3.38000e+02
1103	3.43044e+02	1.10300e+03	8.77764e-01	3.41500e+02
1110	3.46577e+02	1.11000e+03	8.69284e-01	3.45000e+02
1117	3.50120e+02	1.11700e+03	8.58863e-01	3.48500e+02
1124	3.53638e+02	1.12400e+03	8.45710e-01	3.52000e+02
1131	3.57153e+02	1.13100e+03	8.29365e-01	3.55500e+02
1138	3.60660e+02	1.13800e+03	8.07816e-01	3.59000e+02
1145	3.64166e+02	1.14500e+03	7.77636e-01	3.62500e+02
1152	3.67673e+02	1.15200e+03	7.40170e-01	3.66000e+02
1159	3.71160e+02	1.15900e+03	6.96576e-01	3.69500e+02
1166	3.74649e+02	1.16600e+03	6.46355e-01	3.73000e+02
1173	3.78134e+02	1.17300e+03	5.91691e-01	3.76500e+02
1180	3.81626e+02	1.18000e+03	5.32781e-01	3.80000e+02
1187	3.85133e+02	1.18700e+03	4.71264e-01	3.83500e+02
1194	3.88643e+02	1.19400e+03	4.08914e-01	3.87000e+02
1201	3.92116e+02	1.20100e+03	3.45781e-01	3.90500e+02
1208	3.95650e+02	1.20800e+03	2.83335e-01	3.94000e+02
1215	3.99202e+02	1.21500e+03	2.22638e-01	3.97500e+02
1222	4.02892e+02	1.22200e+03	1.66488e-01	4.01000e+02
1229	4.06500e+02	1.22900e+03	1.18301e-01	4.04500e+02
1236	4.10228e+02	1.23600e+03	7.92494e-02	4.08000e+02
1243	4.13708e+02	1.24300e+03	4.94429e-02	4.11500e+02
1250	4.17224e+02	1.25000e+03	2.82183e-02	4.15000e+02
1257	4.20659e+02	1.25700e+03	1.33279e-02	4.18500e+02
1264	4.24122e+02	1.26400e+03	3.18507e-03	4.22000e+02
1271	4.27668e+02	1.27100e+03	-3.62943e-03	4.25500e+02
1278	4.31144e+02	1.27800e+03	-8.17373e-03	4.29000e+02
1285	4.34663e+02	1.28500e+03	-1.12108e-02	4.32500e+02
1292	4.38139e+02	1.29200e+03	-1.32892e-02	4.36000e+02
1299	4.41621e+02	1.29900e+03	-1.49356e-02	4.39500e+02
1306	4.45143e+02	1.30600e+03	-1.61366e-02	4.43000e+02
1313	4.48722e+02	1.31300e+03	-1.70624e-02	4.46500e+02
1320	4.52417e+02	1.32000e+03	-1.75356e-02	4.50000e+02
1327	4.55745e+02	1.32700e+03	-1.79696e-02	4.53500e+02
1334	4.59032e+02	1.33400e+03	-1.82227e-02	4.57000e+02
1341	4.62255e+02	1.34100e+03	-1.81697e-02	4.60500e+02
1348	4.65555e+02	1.34800e+03	-1.82997e-02	4.64000e+02
1355	4.68956e+02	1.35500e+03	-1.85628e-02	4.67500e+02
1362	4.72336e+02	1.36200e+03	-1.85330e-02	4.71000e+02
1369	4.75745e+02	1.36900e+03	-1.86065e-02	4.74500e+02
1376	4.79185e+02	1.37600e+03	-1.87430e-02	4.78000e+02
1383	4.82627e+02	1.38300e+03	-1.87648e-02	4.81500e+02
1390	4.86086e+02	1.39000e+03	-1.88739e-02	4.85000e+02
1397	4.89505e+02	1.39700e+03	-1.88731e-02	4.88500e+02
1404	4.92968e+02	1.40400e+03	-1.89203e-02	4.92000e+02
1411	4.96555e+02	1.41100e+03	-1.91488e-02	4.95500e+02
1418	5.00191e+02	1.41800e+03	-1.91627e-02	4.99000e+02
1425	5.03649e+02	1.42500e+03	-1.92294e-02	5.02500e+02
1432	5.07010e+02	1.43200e+03	-1.92848e-02	5.06000e+02
1439	5.10383e+02	1.43900e+03	-1.91739e-02	5.09500e+02
1446	5.13801e+02	1.44600e+03	-1.92399e-02	5.13000e+02
1453	5.17231e+02	1.45300e+03	-1.95531e-02	5.16500e+02
1460	5.20667e+02	1.46000e+03	-1.92729e-02	5.20000e+02
1467	5.24126e+02	1.46700e+03	-1.92629e-02	5.23500e+02
1474	5.27593e+02	1.47400e+03	-1.94252e-02	5.27000e+02
1481	5.31016e+02	1.48100e+03	-1.95073e-02	5.30500e+02
1488	5.34438e+02	1.48800e+03	-1.94591e-02	5.34000e+02
1495	5.37874e+02	1.49500e+03	-1.94312e-02	5.37500e+02
1502	5.41304e+02	1.50200e+03	-1.96279e-02	5.41000e+02
1509	5.44791e+02	1.50900e+03	-1.95596e-02	5.44500e+02
1516	5.48270e+02	1.51600e+03	-1.96146e-02	5.48000e+02
1523	5.51884e+02	1.52300e+03	-1.96837e-02	5.51500e+02
1530	5.56480e+02	1.53000e+03	-1.97693e-02	5.55000e+02
1537	5.59588e+02	1.53700e+03	-1.97928e-02	5.58500e+02
1544	5.62947e+02	1.54400e+03	-1.95138e-02	5.62000e+02
1551	5.66328e+02	1.55100e+03	-1.96375e-02	5.65500e+02
1558	5.69729e+02	1.55800e+03	-1.95918e-02	5.69000e+02
1565	5.73166e+02	1.56500e+03	-1.96888e-02	5.72500e+02
1572	5.76604e+02	1.57200e+03	-1.97053e-02	5.76000e+02
1579	5.80066e+02	1.57900e+03	-1.95627e-02	5.79500e+02
1586	5.83534e+02	1.58600e+03	-1.96262e-02	5.83000e+02
1593	5.86967e+02	1.59300e+03	-1.95886e-02	5.86500e+02
1600	5.90402e+02	1.60000e+03	-1.95912e-02	5.90000e+02
1607	5.93827e+02	1.60700e+03	-1.96883e-02	5.93500e+02
1614	5.97259e+02	1.61400e+03	-1.97913e-02	5.97000e+02
1621	6.00704e+02	1.62100e+03	-1.98907e-02	6.00500e+02
1628	6.04191e+02	1.62800e+03	-1.99642e-02	6.04000e+02
1635	6.07660e+02	1.63500e+03	-1.99070e-02	6.07500e+02
1642	6.11136e+02	1.64200e+03	-1.99261e-02	6.11000e+02
1649	6.14593e+02	1.64900e+03	-1.98896e-02	6.14500e+02
1656	6.18058e+02	1.65600e+03	-1.97584e-02	6.18000e+02
1663	6.21470e+02	1.66300e+03	-1.98190e-02	6.21500e+02
1670	6.24858e+02	1.67000e+03	-1.99984e-02	6.25000e+02
1677	6.28238e+02	1.67700e+03	-1.99749e-02	6.28500e+02
1684	6.31645e+02	1.68400e+03	-2.00297e-02	6.32000e+02
1691	6.35099e+02	1.69100e+03	-1.99896e-02	6.35500e+02
1698	6.38536e+02	1.69800e+03	-2.00167e-02	6.39000e+02
1705	6.41952e+02	1.70500e+03	-2.00010e-02	6.42500e+02
1712	6.45390e+02	1.71200e+03	-2.00205e-02	6.46000e+02
1719	6.48807e+02	1.71900e+03	-2.02412e-02	6.49500e+02
1726	6.52216e+02	1.72600e+03	-2.03559e-02	6.53000e+02
1733	6.55656e+02	1.73300e+03	-1.98233e-02	6.56500e+02
1740	6.59069e+02	1.74000e+03	-1.97212e-02	6.60000e+02
1747	6.62470e+02	1.74700e+03	-2.00710e-02	6.63500e+02
1754	6.65911e+02	1.75400e+03	-2.01455e-02	6.67000e+02
1761	6.69321e+02	1.76100e+03	-2.00519e-02	6.70500e+02
1768	6.72733e+02	1.76800e+03	-2.01665e-02	6.74000e+02
1775	6.76187e+02	1.77500e+03	-2.01583e-02	6.77500e+02
1782	6.79642e+02	1.78200e+03	-2.02364e-02	6.81000e+02
1789	6.83107e+02	1.78900e+03	-2.04130e-02	6.84500e+02
1796	6.85896e+02	1.79600e+03	-2.00710e-02	6.88000e+02
1803	6.88305e+02	1.80300e+03	-1.97097e-02	6.91500e+02
1810	6.90321e+02	1.81000e+03	-1.98718e-02	6.95000e+02
1817	6.91937e+02	1.81700e+03	-1.99979e-02	6.98500e+02
1820	6.92528e+02	1.82000e+03	-1.99731e-02	7.00000e+02