Folder: Pyrolysis_BESKID/Experiments/TUBS/tga_nonisotherm (part 59)

File: tga_dynamic_n2low30_dyn30_powder_3mg_r3.txt
Index	Ts	t	Weight	Tr
[#]	[°C]	[s]	[mg]	[°C]
681	1.30278e+02	6.81000e+02	3.04896	130.5
691	1.35322e+02	6.91000e+02	3.0483	135.5
701	1.40368e+02	7.01000e+02	3.04751	140.5
711	1.45400e+02	7.11000e+02	3.04647	145.5
721	1.50442e+02	7.21000e+02	3.04476	150.5
731	1.55494e+02	7.31000e+02	3.04299	155.5
741	1.60554e+02	7.41000e+02	3.04051	160.5
751	1.65624e+02	7.51000e+02	3.03787	165.5
761	1.70711e+02	7.61000e+02	3.03469	170.5
771	1.75800e+02	7.71000e+02	3.03084	175.5
781	1.80950e+02	7.81000e+02	3.02514	180.5
791	1.86081e+02	7.91000e+02	3.01666	185.5
801	1.91171e+02	8.01000e+02	3.00415	190.5
811	1.96282e+02	8.11000e+02	2.98986	195.5
821	2.01408e+02	8.21000e+02	2.97533	200.5
831	2.06526e+02	8.31000e+02	2.96303	205.5
841	2.11666e+02	8.41000e+02	2.95457	210.5
851	2.16784e+02	8.51000e+02	2.94899	215.5
861	2.21822e+02	8.61000e+02	2.94523	220.5
871	2.26823e+02	8.71000e+02	2.94185	225.5
881	2.31874e+02	8.81000e+02	2.93815	230.5
891	2.36911e+02	8.91000e+02	2.93418	235.5
901	2.41934e+02	9.01000e+02	2.93023	240.5
911	2.47004e+02	9.11000e+02	2.92661	245.5
921	2.52145e+02	9.21000e+02	2.92328	250.5
931	2.57338e+02	9.31000e+02	2.92042	255.5
941	2.62560e+02	9.41000e+02	2.9178	260.5
951	2.67596e+02	9.51000e+02	2.91497	265.5
961	2.72812e+02	9.61000e+02	2.91196	270.5
971	2.77872e+02	9.71000e+02	2.90844	275.5
981	2.82930e+02	9.81000e+02	2.90398	280.5
991	2.88188e+02	9.91000e+02	2.89805	285.5
1001	2.93294e+02	1.00100e+03	2.88943	290.5
1011	2.98426e+02	1.01100e+03	2.87772	295.5
1021	3.03590e+02	1.02100e+03	2.86276	300.5
1031	3.08769e+02	1.03100e+03	2.84413	305.5
1041	3.13908e+02	1.04100e+03	2.82277	310.5
1051	3.18915e+02	1.05100e+03	2.79995	315.5
1061	3.23968e+02	1.06100e+03	2.77641	320.5
1071	3.28987e+02	1.07100e+03	2.75153	325.5
1081	3.34076e+02	1.08100e+03	2.72144	330.5
1091	3.39198e+02	1.09100e+03	2.68178	335.5
1101	3.44340e+02	1.10100e+03	2.62836	340.5
1111	3.49429e+02	1.11100e+03	2.55651	345.5
1121	3.54436e+02	1.12100e+03	2.46084	350.5
1131	3.59446e+02	1.13100e+03	2.33949	355.5
1141	3.64273e+02	1.14100e+03	2.19087	360.5
1151	3.69138e+02	1.15100e+03	2.0178	365.5
1161	3.74004e+02	1.16100e+03	1.82152	370.5
1171	3.78898e+02	1.17100e+03	1.60529	375.5
1181	3.83817e+02	1.18100e+03	1.37621	380.5
1191	3.88787e+02	1.19100e+03	1.14191	385.5
1201	3.93934e+02	1.20100e+03	0.909869	390.5
1211	3.99095e+02	1.21100e+03	0.689093	395.5
1221	4.04437e+02	1.22100e+03	0.495111	400.5
1231	4.09499e+02	1.23100e+03	0.338222	405.5
1241	4.14743e+02	1.24100e+03	0.222006	410.5
1251	4.19963e+02	1.25100e+03	0.139599	415.5
1261	4.25124e+02	1.26100e+03	0.0858434	420.5
1271	4.30088e+02	1.27100e+03	0.0525429	425.5
1281	4.34915e+02	1.28100e+03	0.0343767	430.5
1291	4.39829e+02	1.29100e+03	0.0245091	435.5
1301	4.45012e+02	1.30100e+03	0.0196175	440.5
1311	4.49957e+02	1.31100e+03	0.0168792	445.5
1321	4.54706e+02	1.32100e+03	0.0153231	450.5
1331	4.59471e+02	1.33100e+03	0.0143385	455.5
1341	4.64335e+02	1.34100e+03	0.0142288	460.5
1351	4.69248e+02	1.35100e+03	0.0139921	465.5
1361	4.74355e+02	1.36100e+03	0.0137465	470.5
1371	4.79400e+02	1.37100e+03	0.0136792	475.5
1381	4.84403e+02	1.38100e+03	0.0136697	480.5
1391	4.88798e+02	1.39100e+03	0.0134637	485.5
1401	4.93807e+02	1.40100e+03	0.013275	490.5
1411	4.98616e+02	1.41100e+03	0.0133738	495.5
1421	5.03470e+02	1.42100e+03	0.0131797	500.5
1431	5.08373e+02	1.43100e+03	0.0128618	505.5
1441	5.13333e+02	1.44100e+03	0.0128659	510.5
1451	5.18309e+02	1.45100e+03	0.0128305	515.5
1461	5.23272e+02	1.46100e+03	0.0128129	520.5
1471	5.28189e+02	1.47100e+03	0.012836	525.5
1481	5.33234e+02	1.48100e+03	0.0129126	530.5
1491	5.37543e+02	1.49100e+03	0.012737	535.5
1501	5.42319e+02	1.50100e+03	0.012483	540.5
1511	5.47125e+02	1.51100e+03	0.0127812	545.5
1521	5.51810e+02	1.52100e+03	0.0127276	550.5
1531	5.56647e+02	1.53100e+03	0.0126342	555.5
1541	5.61510e+02	1.54100e+03	0.012798	560.5
1551	5.66451e+02	1.55100e+03	0.0126956	565.5
1561	5.71495e+02	1.56100e+03	0.0126929	570.5
1571	5.76561e+02	1.57100e+03	0.0125612	575.5
1581	5.82510e+02	1.58100e+03	0.012526	580.5
1591	5.87210e+02	1.59100e+03	0.0124979	585.5
1601	5.92048e+02	1.60100e+03	0.0121889	590.5
1611	5.96932e+02	1.61100e+03	0.012274	595.5
1621	6.01803e+02	1.62100e+03	0.0124701	600.5
1631	6.06701e+02	1.63100e+03	0.0124238	605.5
1641	6.11553e+02	1.64100e+03	0.0122651	610.5
1651	6.16361e+02	1.65100e+03	0.0122659	615.5
1661	6.21198e+02	1.66100e+03	0.0123444	620.5
1671	6.26140e+02	1.67100e+03	0.0124731	625.5
1681	6.31083e+02	1.68100e+03	0.0125048	630.5
1691	6.36001e+02	1.69100e+03	0.0125807	635.5
1701	6.40950e+02	1.70100e+03	0.0123511	640.5
1711	6.45942e+02	1.71100e+03	0.0121962	645.5
1721	6.51186e+02	1.72100e+03	0.0122969	650.5
1731	6.56278e+02	1.73100e+03	0.0122479	655.5
1741	6.61236e+02	1.74100e+03	0.012311	660.5
1751	6.66108e+02	1.75100e+03	0.0123912	665.5
1761	6.70975e+02	1.76100e+03	0.0124679	670.5
1771	6.75885e+02	1.77100e+03	0.0124759	675.5
1781	6.80809e+02	1.78100e+03	0.0123877	680.5
1791	6.85755e+02	1.79100e+03	0.0123555	685.5
1801	6.89335e+02	1.80100e+03	0.0123105	690.5
1811	6.92226e+02	1.81100e+03	0.0124324	695.5
1821	6.94344e+02	1.82100e+03	0.0124376	700.0
1831	6.95917e+02	1.83100e+03	0.0123391	700.0
1841	6.97091e+02	1.84100e+03	0.0123557	700.0
1851	6.97940e+02	1.85100e+03	0.0125324	700.0
1861	6.98617e+02	1.86100e+03	0.012508	700.0
1871	6.99110e+02	1.87100e+03	0.0123437	700.0
1881	6.99488e+02	1.88100e+03	0.0124631	700.0
1891	6.99754e+02	1.89100e+03	0.0124618	700.0
1901	6.99985e+02	1.90100e+03	0.0123856	700.0
1911	7.00143e+02	1.91100e+03	0.0123809	700.0
1921	7.00267e+02	1.92100e+03	0.0123077	700.0
1931	7.00357e+02	1.93100e+03	0.0124111	700.0
1941	7.00453e+02	1.94100e+03	0.0125438	700.0
1951	7.00522e+02	1.95100e+03	0.012451	700.0
1961	7.00582e+02	1.96100e+03	0.0124505	700.0
1971	7.00633e+02	1.97100e+03	0.0124372	700.0
1981	7.00658e+02	1.98100e+03	0.0123632	700.0
1991	7.00678e+02	1.99100e+03	0.0124511	700.0
2001	7.00708e+02	2.00100e+03	0.0123628	700.0
2011	7.00712e+02	2.01100e+03	0.0123515	700.0
2021	7.00721e+02	2.02100e+03	0.0124037	700.0
2031	7.00716e+02	2.03100e+03	0.0125555	700.0
2041	7.00726e+02	2.04100e+03	0.0124223	700.0
2051	7.00717e+02	2.05100e+03	0.012347	700.0
2061	7.00721e+02	2.06100e+03	0.0123613	700.0
2071	7.00718e+02	2.07100e+03	0.0124162	700.0
2081	7.00709e+02	2.08100e+03	0.0122812	700.0
2091	7.00693e+02	2.09100e+03	0.0124267	700.0
2101	7.00692e+02	2.10100e+03	0.0125077	700.0
2111	7.00691e+02	2.11100e+03	0.0123943	700.0
2121	7.00673e+02	2.12100e+03	0.0122074	700.0
2131	7.00673e+02	2.13100e+03	0.0124452	700.0
2141	7.00670e+02	2.14100e+03	0.0125198	700.0
2151	7.00651e+02	2.15100e+03	0.0125838	700.0
2161	7.00638e+02	2.16100e+03	0.0125751	700.0
2171	7.00631e+02	2.17100e+03	0.012493	700.0
2181	7.00637e+02	2.18100e+03	0.0127106	700.0
2191	7.00610e+02	2.19100e+03	0.0127188	700.0
2201	7.00597e+02	2.20100e+03	0.0123147	700.0
2211	7.00582e+02	2.21100e+03	0.0124434	700.0
2221	7.00568e+02	2.22100e+03	0.0125843	700.0
2231	7.00569e+02	2.23100e+03	0.0124129	700.0
2241	7.00554e+02	2.24100e+03	0.0124135	700.0
2251	7.00541e+02	2.25100e+03	0.0127488	700.0
2261	7.00550e+02	2.26100e+03	0.0126655	700.0
2271	7.00526e+02	2.27100e+03	0.0123552	700.0
2281	7.00506e+02	2.28100e+03	0.0131582	700.0
2291	7.00484e+02	2.29100e+03	0.012854	700.0
2301	7.00464e+02	2.30100e+03	0.0127775	700.0
2311	7.00435e+02	2.31100e+03	0.0130373	700.0
2321	7.00426e+02	2.32100e+03	0.0123267	700.0
2331	7.00413e+02	2.33100e+03	0.0127532	700.0
2341	7.00399e+02	2.34100e+03	0.0127724	700.0
2351	7.00384e+02	2.35100e+03	0.0127982	700.0
2361	7.00384e+02	2.36100e+03	0.0127495	700.0
2371	7.00360e+02	2.37100e+03	0.0127174	700.0
2381	7.00353e+02	2.38100e+03	0.0126366	700.0
2391	7.00357e+02	2.39100e+03	0.0126268	700.0
2401	7.00336e+02	2.40100e+03	0.0129102	700.0
2411	7.00331e+02	2.41100e+03	0.0128388	700.0
2421	7.00322e+02	2.42100e+03	0.0126509	700.0
2431	7.00308e+02	2.43100e+03	0.0122174	700.0
2441	7.00307e+02	2.44100e+03	0.0125173	700.0
2451	7.00292e+02	2.45100e+03	0.0126947	700.0
2461	7.00303e+02	2.46100e+03	0.0123818	700.0
2471	7.00281e+02	2.47100e+03	0.0125775	700.0
2481	7.00274e+02	2.48100e+03	0.0122698	700.0
2491	7.00271e+02	2.49100e+03	0.0124796	700.0
2501	7.00262e+02	2.50100e+03	0.012553	700.0
2511	7.00258e+02	2.51100e+03	0.0126005	700.0
2521	7.00264e+02	2.52100e+03	0.0126025	700.0
2531	7.00252e+02	2.53100e+03	0.0125825	700.0
2541	7.00265e+02	2.54100e+03	0.0124454	700.0
2551	7.00258e+02	2.55100e+03	0.012557	700.0
2561	7.00247e+02	2.56100e+03	0.0126073	700.0
2571	7.00251e+02	2.57100e+03	0.0126086	700.0
2581	7.00250e+02	2.58100e+03	0.012509	700.0
2591	7.00247e+02	2.59100e+03	0.0125198	700.0
2601	7.00242e+02	2.60100e+03	0.0124833	700.0
2611	7.00234e+02	2.61100e+03	0.0124664	700.0
2621	7.00237e+02	2.62100e+03	0.0124992	700.0
2631	7.00225e+02	2.63100e+03	0.0122743	700.0
2641	7.00238e+02	2.64100e+03	0.0125176	700.0
2651	7.00231e+02	2.65100e+03	0.0124017	700.0
2661	7.00224e+02	2.66100e+03	0.0124288	700.0
2671	7.00237e+02	2.67100e+03	0.0125483	700.0
2681	7.00234e+02	2.68100e+03	0.0125117	700.0
2691	7.00229e+02	2.69100e+03	0.0124165	700.0
2701	7.00227e+02	2.70100e+03	0.012375	700.0
2711	7.00237e+02	2.71100e+03	0.0123632	700.0
2720	7.00234e+02	2.72000e+03	0.0122238	700.0