Folder: Pyrolysis_BESKID/Experiments/TUBS/tga_nonisotherm (part 35)

File: tga_dynamic_n2_dyn45_powder_3mg_r3.txt
index	ts	t	weight	tr
[#]	[°C]	[s]	[mg]	[°C]
657	1.32728e+02	6.57000e+02	2.95918e+00	1.32752e+02
661	1.35800e+02	6.61000e+02	2.95891e+00	1.35752e+02
665	1.38867e+02	6.65000e+02	2.95853e+00	1.38752e+02
669	1.41932e+02	6.69000e+02	2.95806e+00	1.41752e+02
673	1.44995e+02	6.73000e+02	2.95759e+00	1.44752e+02
677	1.48068e+02	6.77000e+02	2.95712e+00	1.47752e+02
681	1.51120e+02	6.81000e+02	2.95655e+00	1.50752e+02
685	1.54174e+02	6.85000e+02	2.95583e+00	1.53753e+02
689	1.57240e+02	6.89000e+02	2.95495e+00	1.56753e+02
693	1.60291e+02	6.93000e+02	2.95394e+00	1.59753e+02
697	1.63356e+02	6.97000e+02	2.95302e+00	1.62753e+02
701	1.66414e+02	7.01000e+02	2.95173e+00	1.65753e+02
705	1.69467e+02	7.05000e+02	2.94960e+00	1.68753e+02
709	1.72529e+02	7.09000e+02	2.94739e+00	1.71753e+02
713	1.75570e+02	7.13000e+02	2.94536e+00	1.74753e+02
717	1.78621e+02	7.17000e+02	2.94270e+00	1.77754e+02
721	1.81669e+02	7.21000e+02	2.93939e+00	1.80754e+02
725	1.84725e+02	7.25000e+02	2.93532e+00	1.83754e+02
729	1.87781e+02	7.29000e+02	2.93020e+00	1.86754e+02
733	1.90821e+02	7.33000e+02	2.92388e+00	1.89754e+02
737	1.93864e+02	7.37000e+02	2.91631e+00	1.92754e+02
741	1.96935e+02	7.41000e+02	2.90784e+00	1.95754e+02
745	2.00011e+02	7.45000e+02	2.89900e+00	1.98754e+02
749	2.03061e+02	7.49000e+02	2.89009e+00	2.01755e+02
753	2.06137e+02	7.53000e+02	2.88123e+00	2.04755e+02
757	2.09203e+02	7.57000e+02	2.87344e+00	2.07755e+02
761	2.12272e+02	7.61000e+02	2.86692e+00	2.10755e+02
765	2.15335e+02	7.65000e+02	2.86103e+00	2.13755e+02
769	2.18393e+02	7.69000e+02	2.85622e+00	2.16755e+02
773	2.21466e+02	7.73000e+02	2.85259e+00	2.19755e+02
777	2.24533e+02	7.77000e+02	2.84975e+00	2.22755e+02
781	2.27596e+02	7.81000e+02	2.84740e+00	2.25756e+02
785	2.30645e+02	7.85000e+02	2.84523e+00	2.28756e+02
789	2.33689e+02	7.89000e+02	2.84305e+00	2.31756e+02
793	2.36715e+02	7.93000e+02	2.84088e+00	2.34756e+02
797	2.39781e+02	7.97000e+02	2.83873e+00	2.37756e+02
801	2.42864e+02	8.01000e+02	2.83655e+00	2.40756e+02
805	2.45951e+02	8.05000e+02	2.83448e+00	2.43756e+02
809	2.49028e+02	8.09000e+02	2.83248e+00	2.46756e+02
813	2.52109e+02	8.13000e+02	2.83055e+00	2.49757e+02
817	2.55141e+02	8.17000e+02	2.82867e+00	2.52757e+02
821	2.58167e+02	8.21000e+02	2.82683e+00	2.55757e+02
825	2.61190e+02	8.25000e+02	2.82513e+00	2.58757e+02
829	2.64210e+02	8.29000e+02	2.82348e+00	2.61757e+02
833	2.67251e+02	8.33000e+02	2.82194e+00	2.64757e+02
837	2.70298e+02	8.37000e+02	2.82065e+00	2.67757e+02
841	2.73265e+02	8.41000e+02	2.81918e+00	2.70757e+02
845	2.76246e+02	8.45000e+02	2.81724e+00	2.73758e+02
849	2.79250e+02	8.49000e+02	2.81512e+00	2.76758e+02
853	2.82265e+02	8.53000e+02	2.81304e+00	2.79758e+02
857	2.85290e+02	8.57000e+02	2.81066e+00	2.82758e+02
861	2.88323e+02	8.61000e+02	2.80777e+00	2.85758e+02
865	2.91393e+02	8.65000e+02	2.80426e+00	2.88758e+02
869	2.94439e+02	8.69000e+02	2.79988e+00	2.91758e+02
873	2.97523e+02	8.73000e+02	2.79461e+00	2.94758e+02
877	3.00578e+02	8.77000e+02	2.78842e+00	2.97759e+02
881	3.03642e+02	8.81000e+02	2.78114e+00	3.00759e+02
885	3.06707e+02	8.85000e+02	2.77284e+00	3.03759e+02
889	3.09819e+02	8.89000e+02	2.76356e+00	3.06759e+02
893	3.12912e+02	8.93000e+02	2.75328e+00	3.09759e+02
897	3.16057e+02	8.97000e+02	2.74199e+00	3.12759e+02
901	3.19185e+02	9.01000e+02	2.72991e+00	3.15759e+02
905	3.22275e+02	9.05000e+02	2.71739e+00	3.18759e+02
909	3.25334e+02	9.09000e+02	2.70467e+00	3.21759e+02
913	3.28386e+02	9.13000e+02	2.69167e+00	3.24760e+02
917	3.31442e+02	9.17000e+02	2.67794e+00	3.27760e+02
921	3.34410e+02	9.21000e+02	2.66308e+00	3.30760e+02
925	3.37485e+02	9.25000e+02	2.64649e+00	3.33760e+02
929	3.40497e+02	9.29000e+02	2.62738e+00	3.36760e+02
933	3.43492e+02	9.33000e+02	2.60472e+00	3.39760e+02
937	3.46473e+02	9.37000e+02	2.57773e+00	3.42760e+02
941	3.49480e+02	9.41000e+02	2.54555e+00	3.45760e+02
945	3.52516e+02	9.45000e+02	2.50718e+00	3.48761e+02
949	3.55529e+02	9.49000e+02	2.46192e+00	3.51761e+02
953	3.58524e+02	9.53000e+02	2.40922e+00	3.54761e+02
957	3.61516e+02	9.57000e+02	2.34848e+00	3.57761e+02
961	3.64551e+02	9.61000e+02	2.27939e+00	3.60761e+02
965	3.67570e+02	9.65000e+02	2.20223e+00	3.63761e+02
969	3.70641e+02	9.69000e+02	2.11730e+00	3.66761e+02
973	3.73658e+02	9.73000e+02	2.02537e+00	3.69761e+02
977	3.76638e+02	9.77000e+02	1.92672e+00	3.72762e+02
981	3.79667e+02	9.81000e+02	1.82146e+00	3.75762e+02
985	3.82646e+02	9.85000e+02	1.70935e+00	3.78762e+02
989	3.85565e+02	9.89000e+02	1.59117e+00	3.81762e+02
993	3.88582e+02	9.93000e+02	1.46789e+00	3.84762e+02
997	3.91578e+02	9.97000e+02	1.34123e+00	3.87762e+02
1001	3.94571e+02	1.00100e+03	1.21377e+00	3.90762e+02
1005	3.97599e+02	1.00500e+03	1.08742e+00	3.93762e+02
1009	4.00579e+02	1.00900e+03	9.63186e-01	3.96763e+02
1013	4.03615e+02	1.01300e+03	8.41268e-01	3.99763e+02
1017	4.06659e+02	1.01700e+03	7.23573e-01	4.02763e+02
1021	4.09695e+02	1.02100e+03	6.13080e-01	4.05763e+02
1025	4.12763e+02	1.02500e+03	5.12223e-01	4.08763e+02
1029	4.15880e+02	1.02900e+03	4.22499e-01	4.11763e+02
1033	4.19062e+02	1.03300e+03	3.46261e-01	4.14763e+02
1037	4.22113e+02	1.03700e+03	2.83597e-01	4.17763e+02
1041	4.25175e+02	1.04100e+03	2.31329e-01	4.20764e+02
1045	4.28121e+02	1.04500e+03	1.89235e-01	4.23764e+02
1049	4.31116e+02	1.04900e+03	1.56260e-01	4.26764e+02
1053	4.34141e+02	1.05300e+03	1.31233e-01	4.29764e+02
1057	4.37161e+02	1.05700e+03	1.12773e-01	4.32764e+02
1061	4.40198e+02	1.06100e+03	9.95951e-02	4.35764e+02
1065	4.43192e+02	1.06500e+03	9.03644e-02	4.38764e+02
1069	4.46138e+02	1.06900e+03	8.39648e-02	4.41764e+02
1073	4.49102e+02	1.07300e+03	7.96373e-02	4.44765e+02
1077	4.52198e+02	1.07700e+03	7.66694e-02	4.47765e+02
1081	4.55224e+02	1.08100e+03	7.44892e-02	4.50765e+02
1085	4.58272e+02	1.08500e+03	7.29712e-02	4.53765e+02
1089	4.61136e+02	1.08900e+03	7.20541e-02	4.56765e+02
1093	4.63979e+02	1.09300e+03	7.14712e-02	4.59765e+02
1097	4.66810e+02	1.09700e+03	7.10119e-02	4.62765e+02
1101	4.69703e+02	1.10100e+03	7.06300e-02	4.65765e+02
1105	4.72607e+02	1.10500e+03	7.03245e-02	4.68766e+02
1109	4.75507e+02	1.10900e+03	7.02789e-02	4.71766e+02
1113	4.78434e+02	1.11300e+03	7.02800e-02	4.74766e+02
1117	4.81387e+02	1.11700e+03	7.03116e-02	4.77766e+02
1121	4.84351e+02	1.12100e+03	7.03896e-02	4.80766e+02
1125	4.87293e+02	1.12500e+03	7.02893e-02	4.83766e+02
1129	4.90233e+02	1.12900e+03	7.00362e-02	4.86766e+02
1133	4.93176e+02	1.13300e+03	6.99210e-02	4.89766e+02
1137	4.96194e+02	1.13700e+03	6.99177e-02	4.92766e+02
1141	4.99073e+02	1.14100e+03	6.97194e-02	4.95767e+02
1145	5.01997e+02	1.14500e+03	6.94753e-02	4.98767e+02
1149	5.04902e+02	1.14900e+03	6.94389e-02	5.01767e+02
1153	5.07812e+02	1.15300e+03	6.95323e-02	5.04767e+02
1157	5.10716e+02	1.15700e+03	6.95405e-02	5.07767e+02
1161	5.13621e+02	1.16100e+03	6.94332e-02	5.10767e+02
1165	5.16669e+02	1.16500e+03	6.92554e-02	5.13767e+02
1169	5.19622e+02	1.16900e+03	6.91684e-02	5.16767e+02
1173	5.22579e+02	1.17300e+03	6.92032e-02	5.19768e+02
1177	5.25515e+02	1.17700e+03	6.92401e-02	5.22768e+02
1181	5.28588e+02	1.18100e+03	6.92581e-02	5.25768e+02
1185	5.31469e+02	1.18500e+03	6.92678e-02	5.28768e+02
1189	5.34990e+02	1.18900e+03	6.92530e-02	5.31768e+02
1193	5.37791e+02	1.19300e+03	6.91561e-02	5.34768e+02
1197	5.40336e+02	1.19700e+03	6.90448e-02	5.37768e+02
1201	5.43202e+02	1.20100e+03	6.89956e-02	5.40768e+02
1205	5.46133e+02	1.20500e+03	6.89488e-02	5.43769e+02
1209	5.49064e+02	1.20900e+03	6.89353e-02	5.46769e+02
1213	5.51987e+02	1.21300e+03	6.90607e-02	5.49769e+02
1217	5.54873e+02	1.21700e+03	6.91393e-02	5.52769e+02
1221	5.57810e+02	1.22100e+03	6.90207e-02	5.55769e+02
1225	5.60730e+02	1.22500e+03	6.88842e-02	5.58769e+02
1229	5.63737e+02	1.22900e+03	6.88594e-02	5.61769e+02
1233	5.66713e+02	1.23300e+03	6.89210e-02	5.64769e+02
1237	5.69761e+02	1.23700e+03	6.90273e-02	5.67770e+02
1241	5.72878e+02	1.24100e+03	6.90015e-02	5.70770e+02
1245	5.75866e+02	1.24500e+03	6.89165e-02	5.73770e+02
1249	5.78844e+02	1.24900e+03	6.87958e-02	5.76770e+02
1253	5.81817e+02	1.25300e+03	6.87012e-02	5.79770e+02
1257	5.84913e+02	1.25700e+03	6.86133e-02	5.82770e+02
1261	5.87835e+02	1.26100e+03	6.85589e-02	5.85770e+02
1265	5.90864e+02	1.26500e+03	6.84946e-02	5.88770e+02
1269	5.94801e+02	1.26900e+03	6.85225e-02	5.91771e+02
1273	5.98853e+02	1.27300e+03	6.87566e-02	5.94771e+02
1277	6.01713e+02	1.27700e+03	6.87876e-02	5.97771e+02
1281	6.04650e+02	1.28100e+03	6.85630e-02	6.00771e+02
1285	6.07496e+02	1.28500e+03	6.85601e-02	6.03771e+02
1289	6.10328e+02	1.28900e+03	6.86387e-02	6.06771e+02
1293	6.13943e+02	1.29300e+03	6.86611e-02	6.09771e+02
1297	6.16480e+02	1.29700e+03	6.86518e-02	6.12771e+02
1301	6.19637e+02	1.30100e+03	6.86178e-02	6.15772e+02
1305	6.22715e+02	1.30500e+03	6.86911e-02	6.18772e+02
1309	6.25432e+02	1.30900e+03	6.87805e-02	6.21772e+02
1313	6.28519e+02	1.31300e+03	6.88285e-02	6.24772e+02
1317	6.31389e+02	1.31700e+03	6.88778e-02	6.27772e+02
1321	6.34315e+02	1.32100e+03	6.88703e-02	6.30772e+02
1325	6.37248e+02	1.32500e+03	6.88178e-02	6.33772e+02
1329	6.40188e+02	1.32900e+03	6.86307e-02	6.36772e+02
1333	6.43276e+02	1.33300e+03	6.83115e-02	6.39773e+02
1337	6.46285e+02	1.33700e+03	6.81591e-02	6.42773e+02
1341	6.49435e+02	1.34100e+03	6.83300e-02	6.45773e+02
1345	6.52424e+02	1.34500e+03	6.87462e-02	6.48773e+02
1349	6.55365e+02	1.34900e+03	6.89853e-02	6.51773e+02
1353	6.58052e+02	1.35300e+03	6.87831e-02	6.54773e+02
1357	6.60880e+02	1.35700e+03	6.84665e-02	6.57773e+02
1361	6.63845e+02	1.36100e+03	6.83028e-02	6.60773e+02
1365	6.66781e+02	1.36500e+03	6.82600e-02	6.63773e+02
1369	6.69759e+02	1.36900e+03	6.82817e-02	6.66774e+02
1373	6.72742e+02	1.37300e+03	6.82728e-02	6.69774e+02
1377	6.75714e+02	1.37700e+03	6.81874e-02	6.72774e+02
1381	6.78643e+02	1.38100e+03	6.80744e-02	6.75774e+02
1385	6.81588e+02	1.38500e+03	6.80856e-02	6.78774e+02
1389	6.83936e+02	1.38900e+03	6.82223e-02	6.81774e+02
1393	6.86165e+02	1.39300e+03	6.84100e-02	6.84774e+02
1397	6.88140e+02	1.39700e+03	6.84472e-02	6.87774e+02
1401	6.89837e+02	1.40100e+03	6.83611e-02	6.90775e+02
1405	6.91438e+02	1.40500e+03	6.83331e-02	6.93775e+02
1409	6.92710e+02	1.40900e+03	6.83912e-02	6.96775e+02
1413	6.93637e+02	1.41300e+03	6.84699e-02	6.99775e+02
1414	6.93815e+02	1.41400e+03	6.84770e-02	7.00000e+02

File: tga_dynamic_n2_dyn60_piece_1mg_r2.txt
index	ts	t	weight	tr
[#]	[°C]	[s]	[mg]	[°C]
643	1.30362e+02	6.43000e+02	1.03369e+00	1.33000e+02
646	1.33379e+02	6.46000e+02	1.03361e+00	1.36000e+02
649	1.36389e+02	6.49000e+02	1.03358e+00	1.39000e+02
652	1.39376e+02	6.52000e+02	1.03359e+00	1.42000e+02
655	1.42381e+02	6.55000e+02	1.03362e+00	1.45000e+02
658	1.45372e+02	6.58000e+02	1.03365e+00	1.48000e+02
661	1.48359e+02	6.61000e+02	1.03366e+00	1.51000e+02
664	1.51337e+02	6.64000e+02	1.03367e+00	1.54000e+02
667	1.54331e+02	6.67000e+02	1.03364e+00	1.57000e+02
670	1.57307e+02	6.70000e+02	1.03359e+00	1.60000e+02
673	1.60289e+02	6.73000e+02	1.03354e+00	1.63000e+02
676	1.63254e+02	6.76000e+02	1.03349e+00	1.66000e+02
679	1.66228e+02	6.79000e+02	1.03344e+00	1.69000e+02
682	1.69211e+02	6.82000e+02	1.03341e+00	1.72000e+02
685	1.72178e+02	6.85000e+02	1.03341e+00	1.75000e+02
688	1.75163e+02	6.88000e+02	1.03337e+00	1.78000e+02
691	1.78139e+02	6.91000e+02	1.03327e+00	1.81000e+02
694	1.81125e+02	6.94000e+02	1.03313e+00	1.84000e+02
697	1.84090e+02	6.97000e+02	1.03306e+00	1.87000e+02
700	1.87061e+02	7.00000e+02	1.03298e+00	1.90000e+02
703	1.90042e+02	7.03000e+02	1.03286e+00	1.93000e+02
706	1.93032e+02	7.06000e+02	1.03268e+00	1.96000e+02
709	1.96015e+02	7.09000e+02	1.03247e+00	1.99000e+02
712	1.99002e+02	7.12000e+02	1.03222e+00	2.02000e+02
715	2.01990e+02	7.15000e+02	1.03194e+00	2.05000e+02
718	2.04980e+02	7.18000e+02	1.03156e+00	2.08000e+02
721	2.07973e+02	7.21000e+02	1.03105e+00	2.11000e+02
724	2.10961e+02	7.24000e+02	1.03045e+00	2.14000e+02
727	2.13951e+02	7.27000e+02	1.02983e+00	2.17000e+02
730	2.16930e+02	7.30000e+02	1.02918e+00	2.20000e+02
733	2.19917e+02	7.33000e+02	1.02846e+00	2.23000e+02
736	2.22904e+02	7.36000e+02	1.02769e+00	2.26000e+02
739	2.25896e+02	7.39000e+02	1.02691e+00	2.29000e+02
742	2.28875e+02	7.42000e+02	1.02618e+00	2.32000e+02
745	2.31878e+02	7.45000e+02	1.02546e+00	2.35000e+02
748	2.34876e+02	7.48000e+02	1.02472e+00	2.38000e+02
751	2.37884e+02	7.51000e+02	1.02394e+00	2.41000e+02
754	2.40910e+02	7.54000e+02	1.02306e+00	2.44000e+02
757	2.43904e+02	7.57000e+02	1.02217e+00	2.47000e+02
760	2.46900e+02	7.60000e+02	1.02153e+00	2.50000e+02
763	2.49916e+02	7.63000e+02	1.02088e+00	2.53000e+02
766	2.52950e+02	7.66000e+02	1.02005e+00	2.56000e+02
769	2.56020e+02	7.69000e+02	1.01905e+00	2.59000e+02
772	2.59114e+02	7.72000e+02	1.01808e+00	2.62000e+02
775	2.62183e+02	7.75000e+02	1.01711e+00	2.65000e+02
778	2.65248e+02	7.78000e+02	1.01613e+00	2.68000e+02
781	2.68344e+02	7.81000e+02	1.01514e+00	2.71000e+02
784	2.71414e+02	7.84000e+02	1.01411e+00	2.74000e+02
787	2.74436e+02	7.87000e+02	1.01306e+00	2.77000e+02
790	2.77461e+02	7.90000e+02	1.01200e+00	2.80000e+02
793	2.80494e+02	7.93000e+02	1.01098e+00	2.83000e+02
796	2.83614e+02	7.96000e+02	1.00992e+00	2.86000e+02
799	2.86660e+02	7.99000e+02	1.00879e+00	2.89000e+02
802	2.89728e+02	8.02000e+02	1.00750e+00	2.92000e+02
805	2.92745e+02	8.05000e+02	1.00605e+00	2.95000e+02
808	2.95798e+02	8.08000e+02	1.00443e+00	2.98000e+02
811	2.98832e+02	8.11000e+02	1.00274e+00	3.01000e+02
814	3.01892e+02	8.14000e+02	1.00103e+00	3.04000e+02
817	3.04973e+02	8.17000e+02	9.99339e-01	3.07000e+02
820	3.08024e+02	8.20000e+02	9.97535e-01	3.10000e+02
823	3.11059e+02	8.23000e+02	9.95548e-01	3.13000e+02
826	3.14075e+02	8.26000e+02	9.93270e-01	3.16000e+02
829	3.17075e+02	8.29000e+02	9.90813e-01	3.19000e+02
832	3.20108e+02	8.32000e+02	9.88202e-01	3.22000e+02
835	3.23145e+02	8.35000e+02	9.85441e-01	3.25000e+02
838	3.26201e+02	8.38000e+02	9.82456e-01	3.28000e+02
841	3.29281e+02	8.41000e+02	9.79321e-01	3.31000e+02
844	3.32344e+02	8.44000e+02	9.76081e-01	3.34000e+02
847	3.35380e+02	8.47000e+02	9.72751e-01	3.37000e+02
850	3.38400e+02	8.50000e+02	9.69225e-01	3.40000e+02
853	3.41482e+02	8.53000e+02	9.65385e-01	3.43000e+02
856	3.44534e+02	8.56000e+02	9.61107e-01	3.46000e+02
859	3.47589e+02	8.59000e+02	9.56379e-01	3.49000e+02
862	3.50628e+02	8.62000e+02	9.50808e-01	3.52000e+02
865	3.53681e+02	8.65000e+02	9.44268e-01	3.55000e+02
868	3.56708e+02	8.68000e+02	9.36459e-01	3.58000e+02
871	3.59776e+02	8.71000e+02	9.27199e-01	3.61000e+02
874	3.62797e+02	8.74000e+02	9.15396e-01	3.64000e+02
877	3.65848e+02	8.77000e+02	9.01054e-01	3.67000e+02
880	3.68916e+02	8.80000e+02	8.83625e-01	3.70000e+02
883	3.71886e+02	8.83000e+02	8.63131e-01	3.73000e+02
886	3.75020e+02	8.86000e+02	8.37773e-01	3.76000e+02
889	3.78379e+02	8.89000e+02	8.08214e-01	3.79000e+02
892	3.81494e+02	8.92000e+02	7.74285e-01	3.82000e+02
895	3.84550e+02	8.95000e+02	7.36729e-01	3.85000e+02
898	3.87372e+02	8.98000e+02	6.94024e-01	3.88000e+02
901	3.90219e+02	9.01000e+02	6.47755e-01	3.91000e+02
904	3.93066e+02	9.04000e+02	5.98289e-01	3.94000e+02
907	3.96009e+02	9.07000e+02	5.46259e-01	3.97000e+02
910	3.98986e+02	9.10000e+02	4.91469e-01	4.00000e+02
913	4.02000e+02	9.13000e+02	4.36311e-01	4.03000e+02
916	4.05023e+02	9.16000e+02	3.81666e-01	4.06000e+02
919	4.08115e+02	9.19000e+02	3.27856e-01	4.09000e+02
922	4.11277e+02	9.22000e+02	2.76138e-01	4.12000e+02
925	4.14110e+02	9.25000e+02	2.27516e-01	4.15000e+02
928	4.17016e+02	9.28000e+02	1.83250e-01	4.18000e+02
931	4.19856e+02	9.31000e+02	1.43427e-01	4.21000e+02
934	4.22884e+02	9.34000e+02	1.10670e-01	4.24000e+02
937	4.25879e+02	9.37000e+02	8.35909e-02	4.27000e+02
940	4.28797e+02	9.40000e+02	6.17772e-02	4.30000e+02
943	4.31788e+02	9.43000e+02	4.40295e-02	4.33000e+02
946	4.34870e+02	9.46000e+02	3.15380e-02	4.36000e+02
949	4.37777e+02	9.49000e+02	2.21431e-02	4.39000e+02
952	4.41216e+02	9.52000e+02	1.52281e-02	4.42000e+02
955	4.44987e+02	9.55000e+02	1.00068e-02	4.45000e+02
958	4.48350e+02	9.58000e+02	6.70724e-03	4.48000e+02
961	4.51881e+02	9.61000e+02	4.25725e-03	4.51000e+02
964	4.54891e+02	9.64000e+02	2.39581e-03	4.54000e+02
967	4.57912e+02	9.67000e+02	9.43727e-04	4.57000e+02
970	4.60913e+02	9.70000e+02	-5.73865e-05	4.60000e+02
973	4.63743e+02	9.73000e+02	-8.35968e-04	4.63000e+02
976	4.66795e+02	9.76000e+02	-1.39133e-03	4.66000e+02
979	4.69231e+02	9.79000e+02	-1.80237e-03	4.69000e+02
982	4.72044e+02	9.82000e+02	-2.05771e-03	4.72000e+02
985	4.74911e+02	9.85000e+02	-2.22949e-03	4.75000e+02
988	4.77789e+02	9.88000e+02	-2.33623e-03	4.78000e+02
991	4.80863e+02	9.91000e+02	-2.43105e-03	4.81000e+02
994	4.83863e+02	9.94000e+02	-2.52106e-03	4.84000e+02
997	4.86801e+02	9.97000e+02	-2.60248e-03	4.87000e+02
1000	4.89400e+02	1.00000e+03	-2.67768e-03	4.90000e+02
1003	4.92240e+02	1.00300e+03	-2.74281e-03	4.93000e+02
1006	4.94921e+02	1.00600e+03	-2.78861e-03	4.96000e+02
1009	4.97881e+02	1.00900e+03	-2.89170e-03	4.99000e+02
1012	5.01057e+02	1.01200e+03	-3.06241e-03	5.02000e+02
1015	5.04189e+02	1.01500e+03	-3.12706e-03	5.05000e+02
1018	5.07142e+02	1.01800e+03	-3.05372e-03	5.08000e+02
1021	5.09667e+02	1.02100e+03	-3.01702e-03	5.11000e+02
1024	5.12311e+02	1.02400e+03	-3.04224e-03	5.14000e+02
1027	5.15016e+02	1.02700e+03	-3.04679e-03	5.17000e+02
1030	5.17981e+02	1.03000e+03	-3.03235e-03	5.20000e+02
1033	5.21027e+02	1.03300e+03	-3.08550e-03	5.23000e+02
1036	5.23967e+02	1.03600e+03	-3.19797e-03	5.26000e+02
1039	5.26957e+02	1.03900e+03	-3.29683e-03	5.29000e+02
1042	5.29915e+02	1.04200e+03	-3.34907e-03	5.32000e+02
1045	5.33026e+02	1.04500e+03	-3.38243e-03	5.35000e+02
1048	5.36706e+02	1.04800e+03	-3.41869e-03	5.38000e+02
1051	5.39513e+02	1.05100e+03	-3.45096e-03	5.41000e+02
1054	5.42285e+02	1.05400e+03	-3.47609e-03	5.44000e+02
1057	5.45157e+02	1.05700e+03	-3.50945e-03	5.47000e+02
1060	5.48048e+02	1.06000e+03	-3.55357e-03	5.50000e+02
1063	5.50869e+02	1.06300e+03	-3.55799e-03	5.53000e+02
1066	5.53693e+02	1.06600e+03	-3.48694e-03	5.56000e+02
1069	5.56536e+02	1.06900e+03	-3.40953e-03	5.59000e+02
1072	5.59440e+02	1.07200e+03	-3.38001e-03	5.62000e+02
1075	5.62388e+02	1.07500e+03	-3.38386e-03	5.65000e+02
1078	5.65364e+02	1.07800e+03	-3.42299e-03	5.68000e+02
1081	5.68302e+02	1.08100e+03	-3.47002e-03	5.71000e+02
1084	5.71248e+02	1.08400e+03	-3.51403e-03	5.74000e+02
1087	5.74146e+02	1.08700e+03	-3.54276e-03	5.77000e+02
1090	5.76977e+02	1.09000e+03	-3.55827e-03	5.80000e+02
1093	5.80104e+02	1.09300e+03	-3.59108e-03	5.83000e+02
1096	5.83138e+02	1.09600e+03	-3.62980e-03	5.86000e+02
1099	5.86174e+02	1.09900e+03	-3.65485e-03	5.89000e+02
1102	5.89251e+02	1.10200e+03	-3.65126e-03	5.92000e+02
1105	5.92598e+02	1.10500e+03	-3.64135e-03	5.95000e+02
1108	5.95276e+02	1.10800e+03	-3.64723e-03	5.98000e+02
1111	5.97759e+02	1.11100e+03	-3.66680e-03	6.01000e+02
1114	6.00487e+02	1.11400e+03	-3.69982e-03	6.04000e+02
1117	6.03394e+02	1.11700e+03	-3.74124e-03	6.07000e+02
1120	6.06318e+02	1.12000e+03	-3.80201e-03	6.10000e+02
1123	6.09266e+02	1.12300e+03	-3.86204e-03	6.13000e+02
1126	6.12231e+02	1.12600e+03	-3.89372e-03	6.16000e+02
1129	6.15202e+02	1.12900e+03	-3.90511e-03	6.19000e+02
1132	6.18165e+02	1.13200e+03	-3.99928e-03	6.22000e+02
1135	6.21080e+02	1.13500e+03	-4.05418e-03	6.25000e+02
1138	6.24026e+02	1.13800e+03	-3.91863e-03	6.28000e+02
1141	6.27026e+02	1.14100e+03	-3.61147e-03	6.31000e+02
1144	6.30025e+02	1.14400e+03	-3.61451e-03	6.34000e+02
1147	6.33152e+02	1.14700e+03	-3.80478e-03	6.37000e+02
1150	6.36439e+02	1.15000e+03	-4.04707e-03	6.40000e+02
1153	6.39486e+02	1.15300e+03	-4.06896e-03	6.43000e+02
1156	6.42547e+02	1.15600e+03	-4.07444e-03	6.46000e+02
1159	6.45442e+02	1.15900e+03	-4.05525e-03	6.49000e+02
1162	6.48423e+02	1.16200e+03	-4.02260e-03	6.52000e+02
1165	6.51346e+02	1.16500e+03	-4.00451e-03	6.55000e+02
1168	6.54285e+02	1.16800e+03	-4.00005e-03	6.58000e+02
1171	6.57337e+02	1.17100e+03	-4.01431e-03	6.61000e+02
1174	6.60346e+02	1.17400e+03	-4.04204e-03	6.64000e+02
1177	6.63287e+02	1.17700e+03	-4.05659e-03	6.67000e+02
1180	6.66224e+02	1.18000e+03	-4.05035e-03	6.70000e+02
1183	6.69187e+02	1.18300e+03	-4.02259e-03	6.73000e+02
1186	6.71060e+02	1.18600e+03	-3.93353e-03	6.76000e+02
1189	6.73209e+02	1.18900e+03	-3.78390e-03	6.79000e+02
1192	6.75319e+02	1.19200e+03	-3.71535e-03	6.82000e+02
1195	6.77124e+02	1.19500e+03	-3.75531e-03	6.85000e+02
1198	6.78805e+02	1.19800e+03	-3.85381e-03	6.88000e+02
1201	6.80378e+02	1.20100e+03	-3.87527e-03	6.91000e+02
1204	6.81825e+02	1.20400e+03	-3.90241e-03	6.94000e+02
1207	6.83136e+02	1.20700e+03	-3.92200e-03	6.97000e+02
1210	6.84339e+02	1.21000e+03	-3.92770e-03	7.00000e+02