Folder: Pyrolysis_BESKID/Experiments/TUBS/tga_nonisotherm (part 10)

File: tga_dynamic_n2_dyn10_piece_3mg_r1.txt
index	ts	t	weight	tr
[#]	[°C]	[s]	[mg]	[°C]
843	1.31134e+02	8.43000e+02	3.01033e+00	1.30500e+02
862	1.34335e+02	8.62000e+02	3.01009e+00	1.33667e+02
881	1.37553e+02	8.81000e+02	3.00969e+00	1.36833e+02
900	1.40771e+02	9.00000e+02	3.00969e+00	1.40000e+02
919	1.44012e+02	9.19000e+02	3.00932e+00	1.43167e+02
938	1.47233e+02	9.38000e+02	3.00959e+00	1.46333e+02
957	1.50455e+02	9.57000e+02	3.00870e+00	1.49500e+02
976	1.53682e+02	9.76000e+02	3.00850e+00	1.52667e+02
995	1.56888e+02	9.95000e+02	3.00801e+00	1.55833e+02
1014	1.60118e+02	1.01400e+03	3.00774e+00	1.59000e+02
1033	1.63346e+02	1.03300e+03	3.00769e+00	1.62167e+02
1052	1.66557e+02	1.05200e+03	3.00690e+00	1.65333e+02
1071	1.69784e+02	1.07100e+03	3.00654e+00	1.68500e+02
1090	1.72989e+02	1.09000e+03	3.00593e+00	1.71667e+02
1109	1.76202e+02	1.10900e+03	3.00543e+00	1.74833e+02
1128	1.79413e+02	1.12800e+03	3.00407e+00	1.78000e+02
1147	1.82666e+02	1.14700e+03	3.00233e+00	1.81167e+02
1166	1.85879e+02	1.16600e+03	3.00005e+00	1.84333e+02
1185	1.89087e+02	1.18500e+03	2.99747e+00	1.87500e+02
1204	1.92303e+02	1.20400e+03	2.99475e+00	1.90667e+02
1223	1.95502e+02	1.22300e+03	2.99127e+00	1.93833e+02
1242	1.98722e+02	1.24200e+03	2.98782e+00	1.97000e+02
1261	2.01947e+02	1.26100e+03	2.98401e+00	2.00167e+02
1280	2.05133e+02	1.28000e+03	2.98039e+00	2.03333e+02
1299	2.08289e+02	1.29900e+03	2.97667e+00	2.06500e+02
1318	2.11471e+02	1.31800e+03	2.97276e+00	2.09667e+02
1337	2.14639e+02	1.33700e+03	2.96894e+00	2.12833e+02
1356	2.17816e+02	1.35600e+03	2.96519e+00	2.16000e+02
1375	2.20997e+02	1.37500e+03	2.96095e+00	2.19167e+02
1394	2.24161e+02	1.39400e+03	2.95686e+00	2.22333e+02
1413	2.27331e+02	1.41300e+03	2.95240e+00	2.25500e+02
1432	2.30505e+02	1.43200e+03	2.94838e+00	2.28667e+02
1451	2.33695e+02	1.45100e+03	2.94394e+00	2.31833e+02
1470	2.36863e+02	1.47000e+03	2.93994e+00	2.35000e+02
1489	2.40045e+02	1.48900e+03	2.93524e+00	2.38167e+02
1508	2.43217e+02	1.50800e+03	2.93104e+00	2.41333e+02
1527	2.46390e+02	1.52700e+03	2.92678e+00	2.44500e+02
1546	2.49553e+02	1.54600e+03	2.92205e+00	2.47667e+02
1565	2.52719e+02	1.56500e+03	2.91776e+00	2.50833e+02
1584	2.55906e+02	1.58400e+03	2.91353e+00	2.54000e+02
1603	2.59052e+02	1.60300e+03	2.90912e+00	2.57167e+02
1622	2.62267e+02	1.62200e+03	2.90464e+00	2.60333e+02
1641	2.65466e+02	1.64100e+03	2.90040e+00	2.63500e+02
1660	2.68683e+02	1.66000e+03	2.89578e+00	2.66667e+02
1679	2.71905e+02	1.67900e+03	2.89087e+00	2.69833e+02
1698	2.75183e+02	1.69800e+03	2.88600e+00	2.73000e+02
1717	2.78439e+02	1.71700e+03	2.88006e+00	2.76167e+02
1736	2.81656e+02	1.73600e+03	2.87422e+00	2.79333e+02
1755	2.84887e+02	1.75500e+03	2.86746e+00	2.82500e+02
1774	2.88090e+02	1.77400e+03	2.86001e+00	2.85667e+02
1793	2.91276e+02	1.79300e+03	2.85102e+00	2.88833e+02
1812	2.94498e+02	1.81200e+03	2.84114e+00	2.92000e+02
1831	2.97728e+02	1.83100e+03	2.83005e+00	2.95167e+02
1850	3.00929e+02	1.85000e+03	2.81763e+00	2.98333e+02
1869	3.04039e+02	1.86900e+03	2.80281e+00	3.01500e+02
1888	3.06586e+02	1.88800e+03	2.78574e+00	3.04667e+02
1907	3.09678e+02	1.90700e+03	2.77065e+00	3.07833e+02
1926	3.12814e+02	1.92600e+03	2.75543e+00	3.11000e+02
1945	3.15985e+02	1.94500e+03	2.74009e+00	3.14167e+02
1964	3.19141e+02	1.96400e+03	2.72349e+00	3.17333e+02
1983	3.22309e+02	1.98300e+03	2.70525e+00	3.20500e+02
2002	3.25446e+02	2.00200e+03	2.68394e+00	3.23667e+02
2021	3.28605e+02	2.02100e+03	2.65943e+00	3.26833e+02
2040	3.31768e+02	2.04000e+03	2.63026e+00	3.30000e+02
2059	3.34941e+02	2.05900e+03	2.59484e+00	3.33167e+02
2078	3.38106e+02	2.07800e+03	2.55286e+00	3.36333e+02
2097	3.41235e+02	2.09700e+03	2.50087e+00	3.39500e+02
2116	3.44381e+02	2.11600e+03	2.43658e+00	3.42667e+02
2135	3.47584e+02	2.13500e+03	2.35705e+00	3.45833e+02
2154	3.50900e+02	2.15400e+03	2.26079e+00	3.49000e+02
2173	3.54069e+02	2.17300e+03	2.14679e+00	3.52167e+02
2192	3.57196e+02	2.19200e+03	2.01666e+00	3.55333e+02
2211	3.60319e+02	2.21100e+03	1.86918e+00	3.58500e+02
2230	3.63431e+02	2.23000e+03	1.70529e+00	3.61667e+02
2249	3.66555e+02	2.24900e+03	1.53064e+00	3.64833e+02
2268	3.69688e+02	2.26800e+03	1.35356e+00	3.68000e+02
2287	3.72879e+02	2.28700e+03	1.17820e+00	3.71167e+02
2306	3.76062e+02	2.30600e+03	9.98109e-01	3.74333e+02
2325	3.79219e+02	2.32500e+03	8.19150e-01	3.77500e+02
2344	3.82368e+02	2.34400e+03	6.53049e-01	3.80667e+02
2363	3.85526e+02	2.36300e+03	5.04706e-01	3.83833e+02
2382	3.88740e+02	2.38200e+03	3.80453e-01	3.87000e+02
2401	3.91903e+02	2.40100e+03	2.80505e-01	3.90167e+02
2420	3.95118e+02	2.42000e+03	2.03085e-01	3.93333e+02
2439	3.98290e+02	2.43900e+03	1.44711e-01	3.96500e+02
2458	4.01453e+02	2.45800e+03	1.02339e-01	3.99667e+02
2477	4.04586e+02	2.47700e+03	7.16476e-02	4.02833e+02
2496	4.07707e+02	2.49600e+03	4.93758e-02	4.06000e+02
2515	4.10862e+02	2.51500e+03	3.29480e-02	4.09167e+02
2534	4.13985e+02	2.53400e+03	2.07101e-02	4.12333e+02
2553	4.17118e+02	2.55300e+03	1.14722e-02	4.15500e+02
2572	4.20241e+02	2.57200e+03	4.26392e-03	4.18667e+02
2591	4.23352e+02	2.59100e+03	-1.61485e-03	4.21833e+02
2610	4.26476e+02	2.61000e+03	-6.87327e-03	4.25000e+02
2629	4.29604e+02	2.62900e+03	-1.02725e-02	4.28167e+02
2648	4.32749e+02	2.64800e+03	-1.30027e-02	4.31333e+02
2667	4.35869e+02	2.66700e+03	-1.43289e-02	4.34500e+02
2686	4.38997e+02	2.68600e+03	-1.49173e-02	4.37667e+02
2705	4.42098e+02	2.70500e+03	-1.55077e-02	4.40833e+02
2724	4.45235e+02	2.72400e+03	-1.56007e-02	4.44000e+02
2743	4.48365e+02	2.74300e+03	-1.58816e-02	4.47167e+02
2762	4.51505e+02	2.76200e+03	-1.63741e-02	4.50333e+02
2781	4.54592e+02	2.78100e+03	-1.67466e-02	4.53500e+02
2800	4.57698e+02	2.80000e+03	-1.68255e-02	4.56667e+02
2819	4.60803e+02	2.81900e+03	-1.70553e-02	4.59833e+02
2838	4.63897e+02	2.83800e+03	-1.72627e-02	4.63000e+02
2857	4.67010e+02	2.85700e+03	-1.72267e-02	4.66167e+02
2876	4.70149e+02	2.87600e+03	-1.74052e-02	4.69333e+02
2895	4.73244e+02	2.89500e+03	-1.78900e-02	4.72500e+02
2914	4.76349e+02	2.91400e+03	-1.79363e-02	4.75667e+02
2933	4.79451e+02	2.93300e+03	-1.81181e-02	4.78833e+02
2952	4.82580e+02	2.95200e+03	-1.81876e-02	4.82000e+02
2971	4.85687e+02	2.97100e+03	-1.83481e-02	4.85167e+02
2990	4.88793e+02	2.99000e+03	-1.86916e-02	4.88333e+02
3009	4.91913e+02	3.00900e+03	-1.84712e-02	4.91500e+02
3028	4.95027e+02	3.02800e+03	-1.83012e-02	4.94667e+02
3047	4.98180e+02	3.04700e+03	-1.86089e-02	4.97833e+02
3066	5.01353e+02	3.06600e+03	-1.88013e-02	5.01000e+02
3085	5.04503e+02	3.08500e+03	-1.88257e-02	5.04167e+02
3104	5.07639e+02	3.10400e+03	-1.89229e-02	5.07333e+02
3123	5.10794e+02	3.12300e+03	-1.90444e-02	5.10500e+02
3142	5.13941e+02	3.14200e+03	-1.90339e-02	5.13667e+02
3161	5.17100e+02	3.16100e+03	-1.89785e-02	5.16833e+02
3180	5.20266e+02	3.18000e+03	-1.90127e-02	5.20000e+02
3199	5.23430e+02	3.19900e+03	-1.89074e-02	5.23167e+02
3218	5.26617e+02	3.21800e+03	-1.89473e-02	5.26333e+02
3237	5.29792e+02	3.23700e+03	-1.91501e-02	5.29500e+02
3256	5.32992e+02	3.25600e+03	-1.90646e-02	5.32667e+02
3275	5.36231e+02	3.27500e+03	-1.91657e-02	5.35833e+02
3294	5.39448e+02	3.29400e+03	-1.92193e-02	5.39000e+02
3313	5.42673e+02	3.31300e+03	-1.92791e-02	5.42167e+02
3332	5.45906e+02	3.33200e+03	-1.89869e-02	5.45333e+02
3351	5.49096e+02	3.35100e+03	-1.93851e-02	5.48500e+02
3370	5.52272e+02	3.37000e+03	-1.92089e-02	5.51667e+02
3389	5.55558e+02	3.38900e+03	-1.91929e-02	5.54833e+02
3408	5.58904e+02	3.40800e+03	-1.94988e-02	5.58000e+02
3427	5.62016e+02	3.42700e+03	-1.95665e-02	5.61167e+02
3446	5.65088e+02	3.44600e+03	-1.95424e-02	5.64333e+02
3465	5.68216e+02	3.46500e+03	-1.95269e-02	5.67500e+02
3484	5.71309e+02	3.48400e+03	-1.97547e-02	5.70667e+02
3503	5.74466e+02	3.50300e+03	-1.94601e-02	5.73833e+02
3522	5.77575e+02	3.52200e+03	-1.98310e-02	5.77000e+02
3541	5.80716e+02	3.54100e+03	-1.97267e-02	5.80167e+02
3560	5.83846e+02	3.56000e+03	-1.97062e-02	5.83333e+02
3579	5.86917e+02	3.57900e+03	-1.98069e-02	5.86500e+02
3598	5.90034e+02	3.59800e+03	-2.01155e-02	5.89667e+02
3617	5.93163e+02	3.61700e+03	-2.00099e-02	5.92833e+02
3636	5.96282e+02	3.63600e+03	-1.98230e-02	5.96000e+02
3655	5.99440e+02	3.65500e+03	-2.00938e-02	5.99167e+02
3674	6.02576e+02	3.67400e+03	-2.01665e-02	6.02333e+02
3693	6.05696e+02	3.69300e+03	-2.02664e-02	6.05500e+02
3712	6.08889e+02	3.71200e+03	-2.03484e-02	6.08667e+02
3731	6.12109e+02	3.73100e+03	-2.02013e-02	6.11833e+02
3750	6.15271e+02	3.75000e+03	-2.05111e-02	6.15000e+02
3769	6.18387e+02	3.76900e+03	-2.04766e-02	6.18167e+02
3788	6.21514e+02	3.78800e+03	-2.04373e-02	6.21333e+02
3807	6.24658e+02	3.80700e+03	-2.06855e-02	6.24500e+02
3826	6.27832e+02	3.82600e+03	-2.06014e-02	6.27667e+02
3845	6.30967e+02	3.84500e+03	-2.04704e-02	6.30833e+02
3864	6.34083e+02	3.86400e+03	-2.05566e-02	6.34000e+02
3883	6.37205e+02	3.88300e+03	-2.05720e-02	6.37167e+02
3902	6.40356e+02	3.90200e+03	-2.07166e-02	6.40333e+02
3921	6.43506e+02	3.92100e+03	-2.07729e-02	6.43500e+02
3940	6.46651e+02	3.94000e+03	-2.08949e-02	6.46667e+02
3959	6.49778e+02	3.95900e+03	-2.08573e-02	6.49833e+02
3978	6.52921e+02	3.97800e+03	-2.10076e-02	6.53000e+02
3997	6.56078e+02	3.99700e+03	-2.11510e-02	6.56167e+02
4016	6.59218e+02	4.01600e+03	-2.11261e-02	6.59333e+02
4035	6.62384e+02	4.03500e+03	-2.11462e-02	6.62500e+02
4054	6.65541e+02	4.05400e+03	-2.11809e-02	6.65667e+02
4073	6.68704e+02	4.07300e+03	-2.12316e-02	6.68833e+02
4092	6.71865e+02	4.09200e+03	-2.12096e-02	6.72000e+02
4111	6.75029e+02	4.11100e+03	-2.11679e-02	6.75167e+02
4130	6.78119e+02	4.13000e+03	-2.13796e-02	6.78333e+02
4149	6.81237e+02	4.14900e+03	-2.16793e-02	6.81500e+02
4168	6.84381e+02	4.16800e+03	-2.13355e-02	6.84667e+02
4187	6.87538e+02	4.18700e+03	-2.14374e-02	6.87833e+02
4206	6.90701e+02	4.20600e+03	-2.12562e-02	6.91000e+02
4225	6.93823e+02	4.22500e+03	-2.14218e-02	6.94167e+02
4244	6.96336e+02	4.24400e+03	-2.14338e-02	6.97333e+02
4260	6.97653e+02	4.26000e+03	-2.15773e-02	7.00000e+02

File: tga_dynamic_n2_dyn10_piece_3mg_r2.txt
index	ts	t	weight	tr
[#]	[°C]	[s]	[mg]	[°C]
843	1.30642e+02	8.43000e+02	3.00172e+00	1.30500e+02
862	1.33821e+02	8.62000e+02	3.00149e+00	1.33667e+02
881	1.37046e+02	8.81000e+02	3.00117e+00	1.36833e+02
900	1.40246e+02	9.00000e+02	3.00088e+00	1.40000e+02
919	1.43453e+02	9.19000e+02	3.00063e+00	1.43167e+02
938	1.46690e+02	9.38000e+02	3.00078e+00	1.46333e+02
957	1.49937e+02	9.57000e+02	3.00008e+00	1.49500e+02
976	1.53157e+02	9.76000e+02	2.99972e+00	1.52667e+02
995	1.56376e+02	9.95000e+02	2.99938e+00	1.55833e+02
1014	1.59580e+02	1.01400e+03	2.99893e+00	1.59000e+02
1033	1.62804e+02	1.03300e+03	2.99851e+00	1.62167e+02
1052	1.66042e+02	1.05200e+03	2.99813e+00	1.65333e+02
1071	1.69248e+02	1.07100e+03	2.99772e+00	1.68500e+02
1090	1.72487e+02	1.09000e+03	2.99672e+00	1.71667e+02
1109	1.75702e+02	1.10900e+03	2.99592e+00	1.74833e+02
1128	1.78882e+02	1.12800e+03	2.99445e+00	1.78000e+02
1147	1.82090e+02	1.14700e+03	2.99272e+00	1.81167e+02
1166	1.85393e+02	1.16600e+03	2.99053e+00	1.84333e+02
1185	1.88641e+02	1.18500e+03	2.98777e+00	1.87500e+02
1204	1.91884e+02	1.20400e+03	2.98503e+00	1.90667e+02
1223	1.95129e+02	1.22300e+03	2.98151e+00	1.93833e+02
1242	1.98377e+02	1.24200e+03	2.97780e+00	1.97000e+02
1261	2.01676e+02	1.26100e+03	2.97401e+00	2.00167e+02
1280	2.04929e+02	1.28000e+03	2.97046e+00	2.03333e+02
1299	2.08159e+02	1.29900e+03	2.96675e+00	2.06500e+02
1318	2.11382e+02	1.31800e+03	2.96310e+00	2.09667e+02
1337	2.14595e+02	1.33700e+03	2.95957e+00	2.12833e+02
1356	2.17802e+02	1.35600e+03	2.95615e+00	2.16000e+02
1375	2.21004e+02	1.37500e+03	2.95232e+00	2.19167e+02
1394	2.24223e+02	1.39400e+03	2.94887e+00	2.22333e+02
1413	2.27415e+02	1.41300e+03	2.94480e+00	2.25500e+02
1432	2.30629e+02	1.43200e+03	2.94114e+00	2.28667e+02
1451	2.33840e+02	1.45100e+03	2.93723e+00	2.31833e+02
1470	2.37054e+02	1.47000e+03	2.93357e+00	2.35000e+02
1489	2.40272e+02	1.48900e+03	2.92980e+00	2.38167e+02
1508	2.43459e+02	1.50800e+03	2.92606e+00	2.41333e+02
1527	2.46684e+02	1.52700e+03	2.92290e+00	2.44500e+02
1546	2.49869e+02	1.54600e+03	2.91885e+00	2.47667e+02
1565	2.53063e+02	1.56500e+03	2.91507e+00	2.50833e+02
1584	2.56271e+02	1.58400e+03	2.91148e+00	2.54000e+02
1603	2.59495e+02	1.60300e+03	2.90797e+00	2.57167e+02
1622	2.62707e+02	1.62200e+03	2.90416e+00	2.60333e+02
1641	2.65880e+02	1.64100e+03	2.90056e+00	2.63500e+02
1660	2.69013e+02	1.66000e+03	2.89663e+00	2.66667e+02
1679	2.72141e+02	1.67900e+03	2.89262e+00	2.69833e+02
1698	2.75288e+02	1.69800e+03	2.88836e+00	2.73000e+02
1717	2.78442e+02	1.71700e+03	2.88347e+00	2.76167e+02
1736	2.81565e+02	1.73600e+03	2.87856e+00	2.79333e+02
1755	2.84687e+02	1.75500e+03	2.87301e+00	2.82500e+02
1774	2.87803e+02	1.77400e+03	2.86672e+00	2.85667e+02
1793	2.90951e+02	1.79300e+03	2.85934e+00	2.88833e+02
1812	2.94113e+02	1.81200e+03	2.85083e+00	2.92000e+02
1831	2.97265e+02	1.83100e+03	2.84046e+00	2.95167e+02
1850	3.00436e+02	1.85000e+03	2.82868e+00	2.98333e+02
1869	3.03462e+02	1.86900e+03	2.81484e+00	3.01500e+02
1888	3.06375e+02	1.88800e+03	2.80154e+00	3.04667e+02
1907	3.09509e+02	1.90700e+03	2.78955e+00	3.07833e+02
1926	3.12640e+02	1.92600e+03	2.77764e+00	3.11000e+02
1945	3.15777e+02	1.94500e+03	2.76532e+00	3.14167e+02
1964	3.18915e+02	1.96400e+03	2.75156e+00	3.17333e+02
1983	3.22029e+02	1.98300e+03	2.73592e+00	3.20500e+02
2002	3.25189e+02	2.00200e+03	2.71789e+00	3.23667e+02
2021	3.28321e+02	2.02100e+03	2.69627e+00	3.26833e+02
2040	3.31462e+02	2.04000e+03	2.66970e+00	3.30000e+02
2059	3.34599e+02	2.05900e+03	2.63665e+00	3.33167e+02
2078	3.37744e+02	2.07800e+03	2.59687e+00	3.36333e+02
2097	3.40876e+02	2.09700e+03	2.54665e+00	3.39500e+02
2116	3.44005e+02	2.11600e+03	2.48453e+00	3.42667e+02
2135	3.47110e+02	2.13500e+03	2.40634e+00	3.45833e+02
2154	3.50240e+02	2.15400e+03	2.31001e+00	3.49000e+02
2173	3.53359e+02	2.17300e+03	2.19684e+00	3.52167e+02
2192	3.56476e+02	2.19200e+03	2.06635e+00	3.55333e+02
2211	3.59604e+02	2.21100e+03	1.91562e+00	3.58500e+02
2230	3.62751e+02	2.23000e+03	1.75411e+00	3.61667e+02
2249	3.65922e+02	2.24900e+03	1.58171e+00	3.64833e+02
2268	3.69199e+02	2.26800e+03	1.40220e+00	3.68000e+02
2287	3.72493e+02	2.28700e+03	1.22118e+00	3.71167e+02
2306	3.75772e+02	2.30600e+03	1.04089e+00	3.74333e+02
2325	3.78880e+02	2.32500e+03	8.61045e-01	3.77500e+02
2344	3.82027e+02	2.34400e+03	6.89745e-01	3.80667e+02
2363	3.85207e+02	2.36300e+03	5.41027e-01	3.83833e+02
2382	3.88393e+02	2.38200e+03	4.17218e-01	3.87000e+02
2401	3.91582e+02	2.40100e+03	3.16947e-01	3.90167e+02
2420	3.94786e+02	2.42000e+03	2.38663e-01	3.93333e+02
2439	3.97986e+02	2.43900e+03	1.79076e-01	3.96500e+02
2458	4.01159e+02	2.45800e+03	1.35498e-01	3.99667e+02
2477	4.04320e+02	2.47700e+03	1.04672e-01	4.02833e+02
2496	4.07478e+02	2.49600e+03	8.37141e-02	4.06000e+02
2515	4.10651e+02	2.51500e+03	6.91607e-02	4.09167e+02
2534	4.13823e+02	2.53400e+03	5.93825e-02	4.12333e+02
2553	4.17034e+02	2.55300e+03	5.25402e-02	4.15500e+02
2572	4.20215e+02	2.57200e+03	4.76547e-02	4.18667e+02
2591	4.23324e+02	2.59100e+03	4.40418e-02	4.21833e+02
2610	4.26429e+02	2.61000e+03	4.14151e-02	4.25000e+02
2629	4.29608e+02	2.62900e+03	4.06613e-02	4.28167e+02
2648	4.32734e+02	2.64800e+03	3.81230e-02	4.31333e+02
2667	4.35832e+02	2.66700e+03	3.67402e-02	4.34500e+02
2686	4.38918e+02	2.68600e+03	3.60406e-02	4.37667e+02
2705	4.41995e+02	2.70500e+03	3.55029e-02	4.40833e+02
2724	4.45098e+02	2.72400e+03	3.55815e-02	4.44000e+02
2743	4.48203e+02	2.74300e+03	3.57506e-02	4.47167e+02
2762	4.51309e+02	2.76200e+03	3.55916e-02	4.50333e+02
2781	4.54399e+02	2.78100e+03	3.51731e-02	4.53500e+02
2800	4.57497e+02	2.80000e+03	3.50557e-02	4.56667e+02
2819	4.60588e+02	2.81900e+03	3.47569e-02	4.59833e+02
2838	4.63704e+02	2.83800e+03	3.45862e-02	4.63000e+02
2857	4.66805e+02	2.85700e+03	3.43098e-02	4.66167e+02
2876	4.69918e+02	2.87600e+03	3.41698e-02	4.69333e+02
2895	4.73035e+02	2.89500e+03	3.39273e-02	4.72500e+02
2914	4.76147e+02	2.91400e+03	3.39960e-02	4.75667e+02
2933	4.79265e+02	2.93300e+03	3.38287e-02	4.78833e+02
2952	4.82375e+02	2.95200e+03	3.36552e-02	4.82000e+02
2971	4.85462e+02	2.97100e+03	3.33730e-02	4.85167e+02
2990	4.88575e+02	2.99000e+03	3.32100e-02	4.88333e+02
3009	4.91686e+02	3.00900e+03	3.32519e-02	4.91500e+02
3028	4.94813e+02	3.02800e+03	3.33983e-02	4.94667e+02
3047	4.97961e+02	3.04700e+03	3.31583e-02	4.97833e+02
3066	5.01099e+02	3.06600e+03	3.31654e-02	5.01000e+02
3085	5.04244e+02	3.08500e+03	3.28574e-02	5.04167e+02
3104	5.07394e+02	3.10400e+03	3.27508e-02	5.07333e+02
3123	5.10525e+02	3.12300e+03	3.26331e-02	5.10500e+02
3142	5.13691e+02	3.14200e+03	3.28036e-02	5.13667e+02
3161	5.16840e+02	3.16100e+03	3.29153e-02	5.16833e+02
3180	5.19989e+02	3.18000e+03	3.26237e-02	5.20000e+02
3199	5.23135e+02	3.19900e+03	3.23244e-02	5.23167e+02
3218	5.26318e+02	3.21800e+03	3.26117e-02	5.26333e+02
3237	5.29473e+02	3.23700e+03	3.24836e-02	5.29500e+02
3256	5.32608e+02	3.25600e+03	3.24679e-02	5.32667e+02
3275	5.35767e+02	3.27500e+03	3.24958e-02	5.35833e+02
3294	5.38928e+02	3.29400e+03	3.23241e-02	5.39000e+02
3313	5.42097e+02	3.31300e+03	3.22338e-02	5.42167e+02
3332	5.45271e+02	3.33200e+03	3.26366e-02	5.45333e+02
3351	5.48462e+02	3.35100e+03	3.22246e-02	5.48500e+02
3370	5.51664e+02	3.37000e+03	3.22115e-02	5.51667e+02
3389	5.54853e+02	3.38900e+03	3.21749e-02	5.54833e+02
3408	5.58062e+02	3.40800e+03	3.18461e-02	5.58000e+02
3427	5.61181e+02	3.42700e+03	3.18876e-02	5.61167e+02
3446	5.64360e+02	3.44600e+03	3.19352e-02	5.64333e+02
3465	5.67517e+02	3.46500e+03	3.18520e-02	5.67500e+02
3484	5.70601e+02	3.48400e+03	3.16360e-02	5.70667e+02
3503	5.73700e+02	3.50300e+03	3.17164e-02	5.73833e+02
3522	5.76804e+02	3.52200e+03	3.14279e-02	5.77000e+02
3541	5.79939e+02	3.54100e+03	3.15415e-02	5.80167e+02
3560	5.83079e+02	3.56000e+03	3.14933e-02	5.83333e+02
3579	5.86215e+02	3.57900e+03	3.13888e-02	5.86500e+02
3598	5.89324e+02	3.59800e+03	3.13119e-02	5.89667e+02
3617	5.92460e+02	3.61700e+03	3.12997e-02	5.92833e+02
3636	5.95596e+02	3.63600e+03	3.13544e-02	5.96000e+02
3655	5.98731e+02	3.65500e+03	3.13616e-02	5.99167e+02
3674	6.01853e+02	3.67400e+03	3.10303e-02	6.02333e+02
3693	6.05024e+02	3.69300e+03	3.11804e-02	6.05500e+02
3712	6.08205e+02	3.71200e+03	3.10596e-02	6.08667e+02
3731	6.11355e+02	3.73100e+03	3.12181e-02	6.11833e+02
3750	6.14435e+02	3.75000e+03	3.10818e-02	6.15000e+02
3769	6.17567e+02	3.76900e+03	3.08225e-02	6.18167e+02
3788	6.20713e+02	3.78800e+03	3.09498e-02	6.21333e+02
3807	6.23847e+02	3.80700e+03	3.08573e-02	6.24500e+02
3826	6.26975e+02	3.82600e+03	3.07748e-02	6.27667e+02
3845	6.30117e+02	3.84500e+03	3.07914e-02	6.30833e+02
3864	6.33286e+02	3.86400e+03	3.09122e-02	6.34000e+02
3883	6.36439e+02	3.88300e+03	3.08397e-02	6.37167e+02
3902	6.39594e+02	3.90200e+03	3.06867e-02	6.40333e+02
3921	6.42752e+02	3.92100e+03	3.07356e-02	6.43500e+02
3940	6.45914e+02	3.94000e+03	3.05863e-02	6.46667e+02
3959	6.49113e+02	3.95900e+03	3.05732e-02	6.49833e+02
3978	6.52265e+02	3.97800e+03	3.04581e-02	6.53000e+02
3997	6.55427e+02	3.99700e+03	3.04111e-02	6.56167e+02
4016	6.58569e+02	4.01600e+03	3.02845e-02	6.59333e+02
4035	6.61714e+02	4.03500e+03	3.03287e-02	6.62500e+02
4054	6.64856e+02	4.05400e+03	3.01818e-02	6.65667e+02
4073	6.68014e+02	4.07300e+03	3.02950e-02	6.68833e+02
4092	6.71182e+02	4.09200e+03	3.02948e-02	6.72000e+02
4111	6.74370e+02	4.11100e+03	3.04496e-02	6.75167e+02
4130	6.77544e+02	4.13000e+03	3.01997e-02	6.78333e+02
4149	6.80701e+02	4.14900e+03	3.00004e-02	6.81500e+02
4168	6.83864e+02	4.16800e+03	3.00322e-02	6.84667e+02
4187	6.87020e+02	4.18700e+03	2.99776e-02	6.87833e+02
4206	6.90181e+02	4.20600e+03	3.03499e-02	6.91000e+02
4225	6.93362e+02	4.22500e+03	3.01009e-02	6.94167e+02
4244	6.95901e+02	4.24400e+03	3.01690e-02	6.97333e+02
4260	6.97241e+02	4.26000e+03	2.99967e-02	7.00000e+02