Folder: Pyrolysis_BESKID/Experiments/TUBS/tga_nonisotherm (part 54)

File: tga_dynamic_n2high60_dyn30_powder_3mg_r1.txt
Index	Ts	t	Weight	Tr
[#]	[°C]	[s]	[mg]	[°C]
681	1.30250e+02	6.81000e+02	2.99978	130.5
691	1.35314e+02	6.91000e+02	2.99918	135.5
701	1.40394e+02	7.01000e+02	2.99882	140.5
711	1.45477e+02	7.11000e+02	2.99779	145.5
721	1.50534e+02	7.21000e+02	2.99645	150.5
731	1.55613e+02	7.31000e+02	2.99423	155.5
741	1.60691e+02	7.41000e+02	2.99167	160.5
751	1.65778e+02	7.51000e+02	2.98891	165.5
761	1.70866e+02	7.61000e+02	2.98501	170.5
771	1.75957e+02	7.71000e+02	2.97991	175.5
781	1.81050e+02	7.81000e+02	2.97211	180.5
791	1.86165e+02	7.91000e+02	2.96062	185.5
801	1.91278e+02	8.01000e+02	2.946	190.5
811	1.96407e+02	8.11000e+02	2.92921	195.5
821	2.01548e+02	8.21000e+02	2.91273	200.5
831	2.06682e+02	8.31000e+02	2.89888	205.5
841	2.11852e+02	8.41000e+02	2.8892	210.5
851	2.16971e+02	8.51000e+02	2.88329	215.5
861	2.22062e+02	8.61000e+02	2.87929	220.5
871	2.27167e+02	8.71000e+02	2.87566	225.5
881	2.32294e+02	8.81000e+02	2.87189	230.5
891	2.37404e+02	8.91000e+02	2.868	235.5
901	2.42522e+02	9.01000e+02	2.86448	240.5
911	2.47625e+02	9.11000e+02	2.86131	245.5
921	2.52748e+02	9.21000e+02	2.85859	250.5
931	2.57879e+02	9.31000e+02	2.85621	255.5
941	2.62951e+02	9.41000e+02	2.85376	260.5
951	2.68048e+02	9.51000e+02	2.85115	265.5
961	2.73095e+02	9.61000e+02	2.84868	270.5
971	2.78213e+02	9.71000e+02	2.84567	275.5
981	2.83287e+02	9.81000e+02	2.8416	280.5
991	2.88326e+02	9.91000e+02	2.83595	285.5
1001	2.93306e+02	1.00100e+03	2.82831	290.5
1011	2.98183e+02	1.01100e+03	2.81775	295.5
1021	3.02854e+02	1.02100e+03	2.8036	300.5
1031	3.07468e+02	1.03100e+03	2.78601	305.5
1041	3.12018e+02	1.04100e+03	2.76524	310.5
1051	3.16759e+02	1.05100e+03	2.74135	315.5
1061	3.21743e+02	1.06100e+03	2.71716	320.5
1071	3.26747e+02	1.07100e+03	2.69279	325.5
1081	3.31787e+02	1.08100e+03	2.66487	330.5
1091	3.36828e+02	1.09100e+03	2.62856	335.5
1101	3.42123e+02	1.10100e+03	2.57889	340.5
1111	3.47100e+02	1.11100e+03	2.51239	345.5
1121	3.52062e+02	1.12100e+03	2.42285	350.5
1131	3.57096e+02	1.13100e+03	2.30804	355.5
1141	3.62128e+02	1.14100e+03	2.1649	360.5
1151	3.67139e+02	1.15100e+03	1.99636	365.5
1161	3.72244e+02	1.16100e+03	1.80412	370.5
1171	3.77176e+02	1.17100e+03	1.59154	375.5
1181	3.82142e+02	1.18100e+03	1.36364	380.5
1191	3.87137e+02	1.19100e+03	1.12444	385.5
1201	3.92125e+02	1.20100e+03	0.889439	390.5
1211	3.97144e+02	1.21100e+03	0.670615	395.5
1221	4.02199e+02	1.22100e+03	0.481983	400.5
1231	4.07329e+02	1.23100e+03	0.329242	405.5
1241	4.12429e+02	1.24100e+03	0.215397	410.5
1251	4.17475e+02	1.25100e+03	0.133963	415.5
1261	4.22503e+02	1.26100e+03	0.0804931	420.5
1271	4.27572e+02	1.27100e+03	0.0472199	425.5
1281	4.32588e+02	1.28100e+03	0.0288284	430.5
1291	4.37566e+02	1.29100e+03	0.0187191	435.5
1301	4.42528e+02	1.30100e+03	0.0133699	440.5
1311	4.47462e+02	1.31100e+03	0.0105104	445.5
1321	4.52384e+02	1.32100e+03	0.00880889	450.5
1331	4.57270e+02	1.33100e+03	0.00793614	455.5
1341	4.62170e+02	1.34100e+03	0.00744922	460.5
1351	4.67032e+02	1.35100e+03	0.0070883	465.5
1361	4.71877e+02	1.36100e+03	0.00716123	470.5
1371	4.76748e+02	1.37100e+03	0.00684961	475.5
1381	4.81601e+02	1.38100e+03	0.00660593	480.5
1391	4.86449e+02	1.39100e+03	0.0064222	485.5
1401	4.91256e+02	1.40100e+03	0.00624529	490.5
1411	4.96111e+02	1.41100e+03	0.00612983	495.5
1421	5.01046e+02	1.42100e+03	0.0059101	500.5
1431	5.05958e+02	1.43100e+03	0.00576071	505.5
1441	5.10849e+02	1.44100e+03	0.00551256	510.5
1451	5.15822e+02	1.45100e+03	0.00548847	515.5
1461	5.20771e+02	1.46100e+03	0.00550132	520.5
1471	5.25702e+02	1.47100e+03	0.00537023	525.5
1481	5.30651e+02	1.48100e+03	0.00531867	530.5
1491	5.35657e+02	1.49100e+03	0.00529051	535.5
1501	5.40658e+02	1.50100e+03	0.00519449	540.5
1511	5.46129e+02	1.51100e+03	0.00513954	545.5
1521	5.51036e+02	1.52100e+03	0.00498614	550.5
1531	5.55996e+02	1.53100e+03	0.00509479	555.5
1541	5.61025e+02	1.54100e+03	0.0050193	560.5
1551	5.66006e+02	1.55100e+03	0.00492568	565.5
1561	5.70897e+02	1.56100e+03	0.00500954	570.5
1571	5.75870e+02	1.57100e+03	0.00496379	575.5
1581	5.80894e+02	1.58100e+03	0.00497348	580.5
1591	5.86014e+02	1.59100e+03	0.0049047	585.5
1601	5.91686e+02	1.60100e+03	0.00496581	590.5
1611	5.95598e+02	1.61100e+03	0.00500727	595.5
1621	6.00311e+02	1.62100e+03	0.00510542	600.5
1631	6.05230e+02	1.63100e+03	0.00498584	605.5
1641	6.10149e+02	1.64100e+03	0.00482302	610.5
1651	6.15388e+02	1.65100e+03	0.00484522	615.5
1661	6.20565e+02	1.66100e+03	0.00480858	620.5
1671	6.25489e+02	1.67100e+03	0.00476295	625.5
1681	6.30452e+02	1.68100e+03	0.00470275	630.5
1691	6.35327e+02	1.69100e+03	0.00467398	635.5
1701	6.40287e+02	1.70100e+03	0.00482568	640.5
1711	6.45256e+02	1.71100e+03	0.00496328	645.5
1721	6.50211e+02	1.72100e+03	0.00496513	650.5
1731	6.55233e+02	1.73100e+03	0.00467682	655.5
1741	6.60280e+02	1.74100e+03	0.00469706	660.5
1751	6.65390e+02	1.75100e+03	0.00484187	665.5
1761	6.70500e+02	1.76100e+03	0.00488623	670.5
1771	6.75745e+02	1.77100e+03	0.00490308	675.5
1781	6.80866e+02	1.78100e+03	0.00473079	680.5
1791	6.86018e+02	1.79100e+03	0.0046709	685.5
1801	6.89598e+02	1.80100e+03	0.00485835	690.5
1811	6.92568e+02	1.81100e+03	0.00463894	695.5
1821	6.94768e+02	1.82100e+03	0.00442336	700.0
1831	6.96375e+02	1.83100e+03	0.00439486	700.0
1841	6.97599e+02	1.84100e+03	0.00444965	700.0
1851	6.98357e+02	1.85100e+03	0.00461308	700.0
1861	6.98924e+02	1.86100e+03	0.0044348	700.0
1871	6.99302e+02	1.87100e+03	0.00424532	700.0
1881	6.99636e+02	1.88100e+03	0.00428082	700.0
1891	6.99915e+02	1.89100e+03	0.00455111	700.0
1901	7.00122e+02	1.90100e+03	0.00421532	700.0
1911	7.00296e+02	1.91100e+03	0.00424834	700.0
1921	7.00418e+02	1.92100e+03	0.00419015	700.0
1931	7.00515e+02	1.93100e+03	0.00426347	700.0
1941	7.00577e+02	1.94100e+03	0.00440633	700.0
1951	7.00645e+02	1.95100e+03	0.00429503	700.0
1961	7.00712e+02	1.96100e+03	0.00402325	700.0
1971	7.00767e+02	1.97100e+03	0.00423292	700.0
1981	7.00811e+02	1.98100e+03	0.00411889	700.0
1991	7.00859e+02	1.99100e+03	0.00408064	700.0
2001	7.00885e+02	2.00100e+03	0.00410372	700.0
2011	7.00914e+02	2.01100e+03	0.00407029	700.0
2021	7.00918e+02	2.02100e+03	0.00418816	700.0
2031	7.00934e+02	2.03100e+03	0.0042476	700.0
2041	7.00947e+02	2.04100e+03	0.00420545	700.0
2051	7.00957e+02	2.05100e+03	0.00406136	700.0
2061	7.00969e+02	2.06100e+03	0.00413131	700.0
2071	7.00975e+02	2.07100e+03	0.00424302	700.0
2081	7.00993e+02	2.08100e+03	0.00426319	700.0
2091	7.00994e+02	2.09100e+03	0.0040979	700.0
2101	7.00993e+02	2.10100e+03	0.00407995	700.0
2111	7.00987e+02	2.11100e+03	0.00413917	700.0
2121	7.00992e+02	2.12100e+03	0.00413611	700.0
2131	7.01000e+02	2.13100e+03	0.00402764	700.0
2141	7.00986e+02	2.14100e+03	0.00391201	700.0
2151	7.00983e+02	2.15100e+03	0.00394921	700.0
2161	7.00962e+02	2.16100e+03	0.00405476	700.0
2171	7.00949e+02	2.17100e+03	0.00414491	700.0
2181	7.00938e+02	2.18100e+03	0.00414095	700.0
2191	7.00921e+02	2.19100e+03	0.00393107	700.0
2201	7.00896e+02	2.20100e+03	0.00402693	700.0
2211	7.00888e+02	2.21100e+03	0.00402847	700.0
2221	7.00872e+02	2.22100e+03	0.00408967	700.0
2231	7.00847e+02	2.23100e+03	0.00411413	700.0
2241	7.00832e+02	2.24100e+03	0.00396414	700.0
2251	7.00816e+02	2.25100e+03	0.00382758	700.0
2261	7.00784e+02	2.26100e+03	0.00384512	700.0
2271	7.00755e+02	2.27100e+03	0.00391989	700.0
2281	7.00728e+02	2.28100e+03	0.00391905	700.0
2291	7.00714e+02	2.29100e+03	0.00391404	700.0
2301	7.00703e+02	2.30100e+03	0.0038341	700.0
2311	7.00691e+02	2.31100e+03	0.00391603	700.0
2321	7.00681e+02	2.32100e+03	0.00395994	700.0
2331	7.00668e+02	2.33100e+03	0.00377669	700.0
2341	7.00652e+02	2.34100e+03	0.00381999	700.0
2351	7.00629e+02	2.35100e+03	0.00397677	700.0
2361	7.00611e+02	2.36100e+03	0.0039746	700.0
2371	7.00604e+02	2.37100e+03	0.0038363	700.0
2381	7.00597e+02	2.38100e+03	0.00393904	700.0
2391	7.00589e+02	2.39100e+03	0.00380445	700.0
2401	7.00580e+02	2.40100e+03	0.00386251	700.0
2411	7.00578e+02	2.41100e+03	0.00379849	700.0
2421	7.00556e+02	2.42100e+03	0.00398976	700.0
2431	7.00549e+02	2.43100e+03	0.00395624	700.0
2441	7.00551e+02	2.44100e+03	0.00406387	700.0
2451	7.00547e+02	2.45100e+03	0.00398941	700.0
2461	7.00542e+02	2.46100e+03	0.00409118	700.0
2471	7.00539e+02	2.47100e+03	0.00416101	700.0
2481	7.00543e+02	2.48100e+03	0.00412955	700.0
2491	7.00521e+02	2.49100e+03	0.00414704	700.0
2501	7.00527e+02	2.50100e+03	0.00416616	700.0
2511	7.00510e+02	2.51100e+03	0.00395431	700.0
2521	7.00509e+02	2.52100e+03	0.00396015	700.0
2531	7.00496e+02	2.53100e+03	0.00400475	700.0
2541	7.00494e+02	2.54100e+03	0.00386992	700.0
2551	7.00478e+02	2.55100e+03	0.00399971	700.0
2561	7.00477e+02	2.56100e+03	0.00405502	700.0
2571	7.00469e+02	2.57100e+03	0.0040749	700.0
2581	7.00459e+02	2.58100e+03	0.00407703	700.0
2591	7.00463e+02	2.59100e+03	0.00407834	700.0
2601	7.00456e+02	2.60100e+03	0.00407154	700.0
2611	7.00454e+02	2.61100e+03	0.00396317	700.0
2621	7.00441e+02	2.62100e+03	0.00402226	700.0
2631	7.00435e+02	2.63100e+03	0.00412438	700.0
2641	7.00432e+02	2.64100e+03	0.0042165	700.0
2651	7.00426e+02	2.65100e+03	0.00398203	700.0
2661	7.00419e+02	2.66100e+03	0.00399546	700.0
2671	7.00400e+02	2.67100e+03	0.0040542	700.0
2681	7.00388e+02	2.68100e+03	0.00404174	700.0
2691	7.00376e+02	2.69100e+03	0.00404259	700.0
2701	7.00365e+02	2.70100e+03	0.00404041	700.0
2711	7.00355e+02	2.71100e+03	0.00415393	700.0
2720	7.00356e+02	2.72000e+03	0.00410281	700.0

File: tga_dynamic_n2high60_dyn30_powder_3mg_r2.txt
Index	Ts	t	Weight	Tr
[#]	[°C]	[s]	[mg]	[°C]
682	1.30187e+02	6.82000e+02	2.98964	131.0
692	1.35184e+02	6.92000e+02	2.98935	136.0
702	1.40199e+02	7.02000e+02	2.98886	141.0
712	1.45217e+02	7.12000e+02	2.98765	146.0
722	1.50222e+02	7.22000e+02	2.98622	151.0
732	1.55253e+02	7.32000e+02	2.98431	156.0
742	1.60275e+02	7.42000e+02	2.98184	161.0
752	1.65319e+02	7.52000e+02	2.97886	166.0
762	1.70364e+02	7.62000e+02	2.97466	171.0
772	1.75397e+02	7.72000e+02	2.96898	176.0
782	1.80446e+02	7.82000e+02	2.96013	181.0
792	1.85506e+02	7.92000e+02	2.94743	186.0
802	1.90573e+02	8.02000e+02	2.93179	191.0
812	1.95636e+02	8.12000e+02	2.91442	196.0
822	2.00702e+02	8.22000e+02	2.89769	201.0
832	2.05807e+02	8.32000e+02	2.8839	206.0
842	2.10915e+02	8.42000e+02	2.87438	211.0
852	2.16004e+02	8.52000e+02	2.8685	216.0
862	2.21082e+02	8.62000e+02	2.86444	221.0
872	2.26078e+02	8.72000e+02	2.86075	226.0
882	2.31115e+02	8.82000e+02	2.85729	231.0
892	2.36189e+02	8.92000e+02	2.85379	236.0
902	2.41240e+02	9.02000e+02	2.85042	241.0
912	2.46276e+02	9.12000e+02	2.84756	246.0
922	2.51308e+02	9.22000e+02	2.84503	251.0
932	2.56339e+02	9.32000e+02	2.84287	256.0
942	2.61405e+02	9.42000e+02	2.8405	261.0
952	2.66489e+02	9.52000e+02	2.83777	266.0
962	2.71611e+02	9.62000e+02	2.83532	271.0
972	2.76655e+02	9.72000e+02	2.83224	276.0
982	2.81694e+02	9.82000e+02	2.82824	281.0
992	2.86850e+02	9.92000e+02	2.82239	286.0
1002	2.92006e+02	1.00200e+03	2.81447	291.0
1012	2.97061e+02	1.01200e+03	2.8037	296.0
1022	3.02096e+02	1.02200e+03	2.78972	301.0
1032	3.07106e+02	1.03200e+03	2.77215	306.0
1042	3.12176e+02	1.04200e+03	2.75226	311.0
1052	3.17241e+02	1.05200e+03	2.73065	316.0
1062	3.22271e+02	1.06200e+03	2.70866	321.0
1072	3.27448e+02	1.07200e+03	2.68521	326.0
1082	3.32542e+02	1.08200e+03	2.65691	331.0
1092	3.37651e+02	1.09200e+03	2.61939	336.0
1102	3.42666e+02	1.10200e+03	2.56829	341.0
1112	3.47717e+02	1.11200e+03	2.49911	346.0
1122	3.52747e+02	1.12200e+03	2.40759	351.0
1132	3.57639e+02	1.13200e+03	2.28988	356.0
1142	3.62634e+02	1.14200e+03	2.14569	361.0
1152	3.67577e+02	1.15200e+03	1.97723	366.0
1162	3.72410e+02	1.16200e+03	1.78686	371.0
1172	3.77275e+02	1.17200e+03	1.57678	376.0
1182	3.82196e+02	1.18200e+03	1.35417	381.0
1192	3.87052e+02	1.19200e+03	1.12755	386.0
1202	3.91935e+02	1.20200e+03	0.905438	391.0
1212	3.96860e+02	1.21200e+03	0.691572	396.0
1222	4.01908e+02	1.22200e+03	0.500954	401.0
1232	4.06971e+02	1.23200e+03	0.347089	406.0
1242	4.12100e+02	1.24200e+03	0.231971	411.0
1252	4.17232e+02	1.25200e+03	0.15085	416.0
1262	4.22193e+02	1.26200e+03	0.0965158	421.0
1272	4.27246e+02	1.27200e+03	0.0636036	426.0
1282	4.32227e+02	1.28200e+03	0.045123	431.0
1292	4.37169e+02	1.29200e+03	0.0350289	436.0
1302	4.42083e+02	1.30200e+03	0.0298773	441.0
1312	4.47036e+02	1.31200e+03	0.0273398	446.0
1322	4.51979e+02	1.32200e+03	0.0257959	451.0
1332	4.56838e+02	1.33200e+03	0.0251979	456.0
1342	4.61576e+02	1.34200e+03	0.0248742	461.0
1352	4.66457e+02	1.35200e+03	0.0246501	466.0
1362	4.71341e+02	1.36200e+03	0.0248296	471.0
1372	4.76221e+02	1.37200e+03	0.0246602	476.0
1382	4.81145e+02	1.38200e+03	0.0245139	481.0
1392	4.86059e+02	1.39200e+03	0.0244871	486.0
1402	4.90975e+02	1.40200e+03	0.0243049	491.0
1412	4.95890e+02	1.41200e+03	0.0242833	496.0
1422	5.00786e+02	1.42200e+03	0.0243086	501.0
1432	5.05655e+02	1.43200e+03	0.0241885	506.0
1442	5.10555e+02	1.44200e+03	0.0241588	511.0
1452	5.15479e+02	1.45200e+03	0.0243108	516.0
1462	5.20453e+02	1.46200e+03	0.0241804	521.0
1472	5.25414e+02	1.47200e+03	0.0242569	526.0
1482	5.30353e+02	1.48200e+03	0.0242422	531.0
1492	5.35323e+02	1.49200e+03	0.0241408	536.0
1502	5.40331e+02	1.50200e+03	0.0240716	541.0
1512	5.45315e+02	1.51200e+03	0.0239227	546.0
1522	5.50364e+02	1.52200e+03	0.0239052	551.0
1532	5.55623e+02	1.53200e+03	0.0239721	556.0
1542	5.60411e+02	1.54200e+03	0.024047	561.0
1552	5.65304e+02	1.55200e+03	0.0238476	566.0
1562	5.70215e+02	1.56200e+03	0.0239221	571.0
1572	5.75169e+02	1.57200e+03	0.0239638	576.0
1582	5.80133e+02	1.58200e+03	0.023928	581.0
1592	5.85121e+02	1.59200e+03	0.0239818	586.0
1602	5.90148e+02	1.60200e+03	0.0240102	591.0
1612	5.95183e+02	1.61200e+03	0.0239474	596.0
1622	6.02311e+02	1.62200e+03	0.0240002	601.0
1632	6.06783e+02	1.63200e+03	0.0238652	606.0
1642	6.11585e+02	1.64200e+03	0.0237349	611.0
1652	6.16428e+02	1.65200e+03	0.0238898	616.0
1662	6.21212e+02	1.66200e+03	0.0239818	621.0
1672	6.26064e+02	1.67200e+03	0.0238715	626.0
1682	6.30898e+02	1.68200e+03	0.0237793	631.0
1692	6.35652e+02	1.69200e+03	0.023939	636.0
1702	6.40504e+02	1.70200e+03	0.0239663	641.0
1712	6.45370e+02	1.71200e+03	0.0238861	646.0
1722	6.50202e+02	1.72200e+03	0.0239824	651.0
1732	6.55074e+02	1.73200e+03	0.0237268	656.0
1742	6.59937e+02	1.74200e+03	0.0236416	661.0
1752	6.64824e+02	1.75200e+03	0.0236675	666.0
1762	6.69719e+02	1.76200e+03	0.023831	671.0
1772	6.74605e+02	1.77200e+03	0.0238285	676.0
1782	6.79487e+02	1.78200e+03	0.0236106	681.0
1792	6.84374e+02	1.79200e+03	0.0235634	686.0
1802	6.87763e+02	1.80200e+03	0.0236891	691.0
1812	6.90521e+02	1.81200e+03	0.0236293	696.0
1822	6.92498e+02	1.82200e+03	0.0233594	700.0
1832	6.94006e+02	1.83200e+03	0.0233297	700.0
1842	6.95132e+02	1.84200e+03	0.0232184	700.0
1852	6.96003e+02	1.85200e+03	0.0235851	700.0
1862	6.96647e+02	1.86200e+03	0.0234643	700.0
1872	6.97157e+02	1.87200e+03	0.0232402	700.0
1882	6.97550e+02	1.88200e+03	0.0232018	700.0
1892	6.97885e+02	1.89200e+03	0.0234891	700.0
1902	6.98112e+02	1.90200e+03	0.0232617	700.0
1912	6.98322e+02	1.91200e+03	0.023249	700.0
1922	6.98474e+02	1.92200e+03	0.0234094	700.0
1932	6.98593e+02	1.93200e+03	0.0235189	700.0
1942	6.98698e+02	1.94200e+03	0.0234829	700.0
1952	6.98773e+02	1.95200e+03	0.0234444	700.0
1962	6.98828e+02	1.96200e+03	0.0234184	700.0
1972	6.98879e+02	1.97200e+03	0.0236333	700.0
1982	6.98923e+02	1.98200e+03	0.0234853	700.0
1992	6.98953e+02	1.99200e+03	0.0234098	700.0
2002	6.98983e+02	2.00200e+03	0.023407	700.0
2012	6.99004e+02	2.01200e+03	0.0233087	700.0
2022	6.99011e+02	2.02200e+03	0.0235242	700.0
2032	6.99027e+02	2.03200e+03	0.0235929	700.0
2042	6.99036e+02	2.04200e+03	0.0234548	700.0
2052	6.99045e+02	2.05200e+03	0.0233962	700.0
2062	6.99054e+02	2.06200e+03	0.0234682	700.0
2072	6.99042e+02	2.07200e+03	0.0234914	700.0
2082	6.99056e+02	2.08200e+03	0.0235461	700.0
2092	6.99047e+02	2.09200e+03	0.0233513	700.0
2102	6.99054e+02	2.10200e+03	0.0232767	700.0
2112	6.99038e+02	2.11200e+03	0.0232629	700.0
2122	6.99034e+02	2.12200e+03	0.0232272	700.0
2132	6.99038e+02	2.13200e+03	0.0232127	700.0
2142	6.99030e+02	2.14200e+03	0.0231392	700.0
2152	6.99016e+02	2.15200e+03	0.023082	700.0
2162	6.99017e+02	2.16200e+03	0.0231896	700.0
2172	6.99009e+02	2.17200e+03	0.0232795	700.0
2182	6.99004e+02	2.18200e+03	0.0231447	700.0
2192	6.99000e+02	2.19200e+03	0.0231102	700.0
2202	6.99007e+02	2.20200e+03	0.0231722	700.0
2212	6.98997e+02	2.21200e+03	0.0232463	700.0
2222	6.98983e+02	2.22200e+03	0.0231773	700.0
2232	6.98979e+02	2.23200e+03	0.0231107	700.0
2242	6.98970e+02	2.24200e+03	0.0229292	700.0
2252	6.98973e+02	2.25200e+03	0.0228182	700.0
2262	6.98957e+02	2.26200e+03	0.0227642	700.0
2272	6.98952e+02	2.27200e+03	0.0229252	700.0
2282	6.98949e+02	2.28200e+03	0.0229948	700.0
2292	6.98931e+02	2.29200e+03	0.0230482	700.0
2302	6.98935e+02	2.30200e+03	0.0230353	700.0
2312	6.98923e+02	2.31200e+03	0.0230708	700.0
2322	6.98919e+02	2.32200e+03	0.0230178	700.0
2332	6.98928e+02	2.33200e+03	0.0229403	700.0
2342	6.98905e+02	2.34200e+03	0.0228797	700.0
2352	6.98911e+02	2.35200e+03	0.0229445	700.0
2362	6.98900e+02	2.36200e+03	0.0229986	700.0
2372	6.98903e+02	2.37200e+03	0.0229028	700.0
2382	6.98887e+02	2.38200e+03	0.0229274	700.0
2392	6.98889e+02	2.39200e+03	0.0228504	700.0
2402	6.98890e+02	2.40200e+03	0.0228023	700.0
2412	6.98874e+02	2.41200e+03	0.0227227	700.0
2422	6.98872e+02	2.42200e+03	0.0229915	700.0
2432	6.98877e+02	2.43200e+03	0.0229097	700.0
2442	6.98863e+02	2.44200e+03	0.0228855	700.0
2452	6.98869e+02	2.45200e+03	0.0229793	700.0
2462	6.98872e+02	2.46200e+03	0.0230683	700.0
2472	6.98868e+02	2.47200e+03	0.0229091	700.0
2482	6.98862e+02	2.48200e+03	0.0229277	700.0
2492	6.98876e+02	2.49200e+03	0.0229858	700.0
2502	6.98858e+02	2.50200e+03	0.0230105	700.0
2512	6.98854e+02	2.51200e+03	0.0227564	700.0
2522	6.98856e+02	2.52200e+03	0.0229687	700.0
2532	6.98854e+02	2.53200e+03	0.0230434	700.0
2542	6.98846e+02	2.54200e+03	0.0227086	700.0
2552	6.98844e+02	2.55200e+03	0.0228209	700.0
2562	6.98840e+02	2.56200e+03	0.0228572	700.0
2572	6.98823e+02	2.57200e+03	0.0227898	700.0
2582	6.98837e+02	2.58200e+03	0.0228993	700.0
2592	6.98831e+02	2.59200e+03	0.0227938	700.0
2602	6.98827e+02	2.60200e+03	0.0228111	700.0
2612	6.98829e+02	2.61200e+03	0.0228168	700.0
2622	6.98823e+02	2.62200e+03	0.0228998	700.0
2632	6.98828e+02	2.63200e+03	0.0229026	700.0
2642	6.98826e+02	2.64200e+03	0.0229007	700.0
2652	6.98822e+02	2.65200e+03	0.0227301	700.0
2662	6.98818e+02	2.66200e+03	0.0227871	700.0
2672	6.98810e+02	2.67200e+03	0.0227529	700.0
2682	6.98813e+02	2.68200e+03	0.0229715	700.0
2692	6.98802e+02	2.69200e+03	0.022957	700.0
2702	6.98806e+02	2.70200e+03	0.0229923	700.0
2712	6.98800e+02	2.71200e+03	0.0229669	700.0
2720	6.98802e+02	2.72000e+03	0.0229078	700.0