Folder: Pyrolysis_BESKID/Experiments/TUBS/tga_nonisotherm (part 14)

File: tga_dynamic_n2_dyn10_powder_3mg_r3.txt
index	ts	t	weight	tr
[#]	[°C]	[s]	[mg]	[°C]
843	1.29966e+02	8.43000e+02	3.02592e+00	1.30500e+02
862	1.33154e+02	8.62000e+02	3.02548e+00	1.33667e+02
881	1.36324e+02	8.81000e+02	3.02441e+00	1.36833e+02
900	1.39505e+02	9.00000e+02	3.02368e+00	1.40000e+02
919	1.42698e+02	9.19000e+02	3.02226e+00	1.43167e+02
938	1.45880e+02	9.38000e+02	3.02122e+00	1.46333e+02
957	1.49064e+02	9.57000e+02	3.01918e+00	1.49500e+02
976	1.52265e+02	9.76000e+02	3.01715e+00	1.52667e+02
995	1.55444e+02	9.95000e+02	3.01505e+00	1.55833e+02
1014	1.58635e+02	1.01400e+03	3.01253e+00	1.59000e+02
1033	1.61825e+02	1.03300e+03	3.00972e+00	1.62167e+02
1052	1.65009e+02	1.05200e+03	3.00580e+00	1.65333e+02
1071	1.68212e+02	1.07100e+03	3.00075e+00	1.68500e+02
1090	1.71398e+02	1.09000e+03	2.99358e+00	1.71667e+02
1109	1.74616e+02	1.10900e+03	2.98451e+00	1.74833e+02
1128	1.77788e+02	1.12800e+03	2.97333e+00	1.78000e+02
1147	1.81001e+02	1.14700e+03	2.96052e+00	1.81167e+02
1166	1.84243e+02	1.16600e+03	2.94744e+00	1.84333e+02
1185	1.87515e+02	1.18500e+03	2.93494e+00	1.87500e+02
1204	1.90779e+02	1.20400e+03	2.92432e+00	1.90667e+02
1223	1.94002e+02	1.22300e+03	2.91562e+00	1.93833e+02
1242	1.97221e+02	1.24200e+03	2.90952e+00	1.97000e+02
1261	2.00436e+02	1.26100e+03	2.90514e+00	2.00167e+02
1280	2.03634e+02	1.28000e+03	2.90220e+00	2.03333e+02
1299	2.06852e+02	1.29900e+03	2.89958e+00	2.06500e+02
1318	2.10062e+02	1.31800e+03	2.89707e+00	2.09667e+02
1337	2.13248e+02	1.33700e+03	2.89497e+00	2.12833e+02
1356	2.16422e+02	1.35600e+03	2.89276e+00	2.16000e+02
1375	2.19615e+02	1.37500e+03	2.89030e+00	2.19167e+02
1394	2.22843e+02	1.39400e+03	2.88848e+00	2.22333e+02
1413	2.26072e+02	1.41300e+03	2.88652e+00	2.25500e+02
1432	2.29287e+02	1.43200e+03	2.88506e+00	2.28667e+02
1451	2.32500e+02	1.45100e+03	2.88394e+00	2.31833e+02
1470	2.35695e+02	1.47000e+03	2.88274e+00	2.35000e+02
1489	2.38931e+02	1.48900e+03	2.88152e+00	2.38167e+02
1508	2.42135e+02	1.50800e+03	2.88053e+00	2.41333e+02
1527	2.45368e+02	1.52700e+03	2.87968e+00	2.44500e+02
1546	2.48517e+02	1.54600e+03	2.87845e+00	2.47667e+02
1565	2.51764e+02	1.56500e+03	2.87747e+00	2.50833e+02
1584	2.54966e+02	1.58400e+03	2.87627e+00	2.54000e+02
1603	2.58139e+02	1.60300e+03	2.87509e+00	2.57167e+02
1622	2.61284e+02	1.62200e+03	2.87338e+00	2.60333e+02
1641	2.64392e+02	1.64100e+03	2.87155e+00	2.63500e+02
1660	2.67551e+02	1.66000e+03	2.86934e+00	2.66667e+02
1679	2.70701e+02	1.67900e+03	2.86615e+00	2.69833e+02
1698	2.73846e+02	1.69800e+03	2.86284e+00	2.73000e+02
1717	2.76994e+02	1.71700e+03	2.85813e+00	2.76167e+02
1736	2.80153e+02	1.73600e+03	2.85297e+00	2.79333e+02
1755	2.83301e+02	1.75500e+03	2.84625e+00	2.82500e+02
1774	2.86487e+02	1.77400e+03	2.83848e+00	2.85667e+02
1793	2.89637e+02	1.79300e+03	2.82882e+00	2.88833e+02
1812	2.92791e+02	1.81200e+03	2.81762e+00	2.92000e+02
1831	2.95963e+02	1.83100e+03	2.80516e+00	2.95167e+02
1850	2.99139e+02	1.85000e+03	2.79155e+00	2.98333e+02
1869	3.02294e+02	1.86900e+03	2.77713e+00	3.01500e+02
1888	3.05458e+02	1.88800e+03	2.76218e+00	3.04667e+02
1907	3.08601e+02	1.90700e+03	2.74714e+00	3.07833e+02
1926	3.11750e+02	1.92600e+03	2.73150e+00	3.11000e+02
1945	3.14949e+02	1.94500e+03	2.71495e+00	3.14167e+02
1964	3.18156e+02	1.96400e+03	2.69599e+00	3.17333e+02
1983	3.21319e+02	1.98300e+03	2.67399e+00	3.20500e+02
2002	3.24497e+02	2.00200e+03	2.64726e+00	3.23667e+02
2021	3.27637e+02	2.02100e+03	2.61472e+00	3.26833e+02
2040	3.30789e+02	2.04000e+03	2.57445e+00	3.30000e+02
2059	3.33899e+02	2.05900e+03	2.52478e+00	3.33167e+02
2078	3.37001e+02	2.07800e+03	2.46492e+00	3.36333e+02
2097	3.40103e+02	2.09700e+03	2.39206e+00	3.39500e+02
2116	3.43207e+02	2.11600e+03	2.30559e+00	3.42667e+02
2135	3.46329e+02	2.13500e+03	2.20527e+00	3.45833e+02
2154	3.49463e+02	2.15400e+03	2.09103e+00	3.49000e+02
2173	3.52632e+02	2.17300e+03	1.96391e+00	3.52167e+02
2192	3.55901e+02	2.19200e+03	1.82577e+00	3.55333e+02
2211	3.59342e+02	2.21100e+03	1.67701e+00	3.58500e+02
2230	3.62557e+02	2.23000e+03	1.52137e+00	3.61667e+02
2249	3.65742e+02	2.24900e+03	1.35949e+00	3.64833e+02
2268	3.68991e+02	2.26800e+03	1.19755e+00	3.68000e+02
2287	3.72204e+02	2.28700e+03	1.02819e+00	3.71167e+02
2306	3.75537e+02	2.30600e+03	8.67633e-01	3.74333e+02
2325	3.78888e+02	2.32500e+03	7.18114e-01	3.77500e+02
2344	3.82137e+02	2.34400e+03	5.82733e-01	3.80667e+02
2363	3.85388e+02	2.36300e+03	4.64437e-01	3.83833e+02
2382	3.88599e+02	2.38200e+03	3.63696e-01	3.87000e+02
2401	3.91790e+02	2.40100e+03	2.79939e-01	3.90167e+02
2420	3.94956e+02	2.42000e+03	2.11898e-01	3.93333e+02
2439	3.98137e+02	2.43900e+03	1.57896e-01	3.96500e+02
2458	4.01348e+02	2.45800e+03	1.15916e-01	3.99667e+02
2477	4.04638e+02	2.47700e+03	8.42030e-02	4.02833e+02
2496	4.07742e+02	2.49600e+03	6.12155e-02	4.06000e+02
2515	4.10866e+02	2.51500e+03	4.48963e-02	4.09167e+02
2534	4.14039e+02	2.53400e+03	3.36678e-02	4.12333e+02
2553	4.17204e+02	2.55300e+03	2.60810e-02	4.15500e+02
2572	4.20362e+02	2.57200e+03	2.07431e-02	4.18667e+02
2591	4.23672e+02	2.59100e+03	1.73182e-02	4.21833e+02
2610	4.26857e+02	2.61000e+03	1.46690e-02	4.25000e+02
2629	4.30075e+02	2.62900e+03	1.35028e-02	4.28167e+02
2648	4.33191e+02	2.64800e+03	1.23866e-02	4.31333e+02
2667	4.36298e+02	2.66700e+03	1.16594e-02	4.34500e+02
2686	4.39459e+02	2.68600e+03	1.11827e-02	4.37667e+02
2705	4.42650e+02	2.70500e+03	1.10260e-02	4.40833e+02
2724	4.45801e+02	2.72400e+03	1.09051e-02	4.44000e+02
2743	4.48965e+02	2.74300e+03	1.09166e-02	4.47167e+02
2762	4.52071e+02	2.76200e+03	1.08025e-02	4.50333e+02
2781	4.54872e+02	2.78100e+03	1.04365e-02	4.53500e+02
2800	4.57941e+02	2.80000e+03	1.04507e-02	4.56667e+02
2819	4.61041e+02	2.81900e+03	1.03184e-02	4.59833e+02
2838	4.64164e+02	2.83800e+03	1.02377e-02	4.63000e+02
2857	4.67307e+02	2.85700e+03	1.01813e-02	4.66167e+02
2876	4.70406e+02	2.87600e+03	1.02068e-02	4.69333e+02
2895	4.73528e+02	2.89500e+03	9.99220e-03	4.72500e+02
2914	4.76633e+02	2.91400e+03	1.00431e-02	4.75667e+02
2933	4.79712e+02	2.93300e+03	1.00037e-02	4.78833e+02
2952	4.82825e+02	2.95200e+03	1.00240e-02	4.82000e+02
2971	4.85906e+02	2.97100e+03	9.83137e-03	4.85167e+02
2990	4.89009e+02	2.99000e+03	9.71844e-03	4.88333e+02
3009	4.92121e+02	3.00900e+03	1.00012e-02	4.91500e+02
3028	4.95256e+02	3.02800e+03	1.00967e-02	4.94667e+02
3047	4.98403e+02	3.04700e+03	9.86277e-03	4.97833e+02
3066	5.01516e+02	3.06600e+03	9.81353e-03	5.01000e+02
3085	5.04662e+02	3.08500e+03	9.78512e-03	5.04167e+02
3104	5.07806e+02	3.10400e+03	9.78821e-03	5.07333e+02
3123	5.10927e+02	3.12300e+03	9.65670e-03	5.10500e+02
3142	5.14059e+02	3.14200e+03	9.85694e-03	5.13667e+02
3161	5.17170e+02	3.16100e+03	9.83512e-03	5.16833e+02
3180	5.20281e+02	3.18000e+03	9.82679e-03	5.20000e+02
3199	5.23439e+02	3.19900e+03	9.71636e-03	5.23167e+02
3218	5.26570e+02	3.21800e+03	9.79643e-03	5.26333e+02
3237	5.29711e+02	3.23700e+03	9.63975e-03	5.29500e+02
3256	5.32853e+02	3.25600e+03	9.74320e-03	5.32667e+02
3275	5.35940e+02	3.27500e+03	9.62044e-03	5.35833e+02
3294	5.39060e+02	3.29400e+03	9.58436e-03	5.39000e+02
3313	5.42189e+02	3.31300e+03	9.59609e-03	5.42167e+02
3332	5.45288e+02	3.33200e+03	9.81036e-03	5.45333e+02
3351	5.48393e+02	3.35100e+03	9.59155e-03	5.48500e+02
3370	5.51530e+02	3.37000e+03	9.71111e-03	5.51667e+02
3389	5.54678e+02	3.38900e+03	9.68163e-03	5.54833e+02
3408	5.57838e+02	3.40800e+03	9.40212e-03	5.58000e+02
3427	5.61006e+02	3.42700e+03	9.46335e-03	5.61167e+02
3446	5.64170e+02	3.44600e+03	9.46407e-03	5.64333e+02
3465	5.67296e+02	3.46500e+03	9.53390e-03	5.67500e+02
3484	5.70413e+02	3.48400e+03	9.26796e-03	5.70667e+02
3503	5.73538e+02	3.50300e+03	9.29441e-03	5.73833e+02
3522	5.76648e+02	3.52200e+03	9.09315e-03	5.77000e+02
3541	5.79717e+02	3.54100e+03	9.34743e-03	5.80167e+02
3560	5.82778e+02	3.56000e+03	9.22297e-03	5.83333e+02
3579	5.85885e+02	3.57900e+03	9.15925e-03	5.86500e+02
3598	5.88983e+02	3.59800e+03	9.11849e-03	5.89667e+02
3617	5.92099e+02	3.61700e+03	9.24295e-03	5.92833e+02
3636	5.95233e+02	3.63600e+03	9.35831e-03	5.96000e+02
3655	5.98390e+02	3.65500e+03	9.22464e-03	5.99167e+02
3674	6.01603e+02	3.67400e+03	9.10336e-03	6.02333e+02
3693	6.04772e+02	3.69300e+03	9.14546e-03	6.05500e+02
3712	6.07937e+02	3.71200e+03	9.04926e-03	6.08667e+02
3731	6.11104e+02	3.73100e+03	9.23426e-03	6.11833e+02
3750	6.14324e+02	3.75000e+03	8.98401e-03	6.15000e+02
3769	6.17565e+02	3.76900e+03	9.07483e-03	6.18167e+02
3788	6.20707e+02	3.78800e+03	9.02248e-03	6.21333e+02
3807	6.23882e+02	3.80700e+03	9.07093e-03	6.24500e+02
3826	6.27039e+02	3.82600e+03	8.99939e-03	6.27667e+02
3845	6.30135e+02	3.84500e+03	9.07647e-03	6.30833e+02
3864	6.33192e+02	3.86400e+03	9.10689e-03	6.34000e+02
3883	6.36304e+02	3.88300e+03	9.11139e-03	6.37167e+02
3902	6.39413e+02	3.90200e+03	9.01891e-03	6.40333e+02
3921	6.42519e+02	3.92100e+03	9.11400e-03	6.43500e+02
3940	6.45649e+02	3.94000e+03	9.03844e-03	6.46667e+02
3959	6.48769e+02	3.95900e+03	9.07886e-03	6.49833e+02
3978	6.51907e+02	3.97800e+03	9.06140e-03	6.53000e+02
3997	6.55012e+02	3.99700e+03	9.15506e-03	6.56167e+02
4016	6.58118e+02	4.01600e+03	8.99278e-03	6.59333e+02
4035	6.61245e+02	4.03500e+03	8.97189e-03	6.62500e+02
4054	6.64394e+02	4.05400e+03	8.93130e-03	6.65667e+02
4073	6.67553e+02	4.07300e+03	8.97042e-03	6.68833e+02
4092	6.70707e+02	4.09200e+03	9.07809e-03	6.72000e+02
4111	6.73864e+02	4.11100e+03	9.15562e-03	6.75167e+02
4130	6.77015e+02	4.13000e+03	8.86719e-03	6.78333e+02
4149	6.80181e+02	4.14900e+03	8.84643e-03	6.81500e+02
4168	6.83328e+02	4.16800e+03	8.85158e-03	6.84667e+02
4187	6.86475e+02	4.18700e+03	8.87496e-03	6.87833e+02
4206	6.89629e+02	4.20600e+03	9.18682e-03	6.91000e+02
4225	6.92772e+02	4.22500e+03	9.21401e-03	6.94167e+02
4244	6.95361e+02	4.24400e+03	9.02715e-03	6.97333e+02
4260	6.96705e+02	4.26000e+03	8.99777e-03	7.00000e+02

File: tga_dynamic_n2_dyn20_piece_1mg_r1.txt
index	ts	t	weight	tr
[#]	[°C]	[s]	[mg]	[°C]
723	1.30061e+02	7.23000e+02	9.82431e-01	1.31000e+02
733	1.33387e+02	7.33000e+02	9.82506e-01	1.34333e+02
743	1.36700e+02	7.43000e+02	9.82341e-01	1.37667e+02
753	1.40042e+02	7.53000e+02	9.82391e-01	1.41000e+02
763	1.43367e+02	7.63000e+02	9.82325e-01	1.44333e+02
773	1.46708e+02	7.73000e+02	9.82423e-01	1.47667e+02
783	1.50043e+02	7.83000e+02	9.82254e-01	1.51000e+02
793	1.53375e+02	7.93000e+02	9.82244e-01	1.54333e+02
803	1.56736e+02	8.03000e+02	9.81967e-01	1.57667e+02
813	1.60084e+02	8.13000e+02	9.82074e-01	1.61000e+02
823	1.63447e+02	8.23000e+02	9.82267e-01	1.64333e+02
833	1.66814e+02	8.33000e+02	9.82241e-01	1.67667e+02
843	1.70180e+02	8.43000e+02	9.82196e-01	1.71000e+02
853	1.73545e+02	8.53000e+02	9.82042e-01	1.74333e+02
863	1.76932e+02	8.63000e+02	9.81918e-01	1.77667e+02
873	1.80337e+02	8.73000e+02	9.81578e-01	1.81000e+02
883	1.83715e+02	8.83000e+02	9.81342e-01	1.84333e+02
893	1.87101e+02	8.93000e+02	9.80767e-01	1.87667e+02
903	1.90484e+02	9.03000e+02	9.79961e-01	1.91000e+02
913	1.93853e+02	9.13000e+02	9.78977e-01	1.94333e+02
923	1.97231e+02	9.23000e+02	9.78002e-01	1.97667e+02
933	2.00607e+02	9.33000e+02	9.76685e-01	2.01000e+02
943	2.03994e+02	9.43000e+02	9.75332e-01	2.04333e+02
953	2.07354e+02	9.53000e+02	9.73959e-01	2.07667e+02
963	2.10747e+02	9.63000e+02	9.72669e-01	2.11000e+02
973	2.14123e+02	9.73000e+02	9.71560e-01	2.14333e+02
983	2.17500e+02	9.83000e+02	9.70160e-01	2.17667e+02
993	2.20872e+02	9.93000e+02	9.68828e-01	2.21000e+02
1003	2.24255e+02	1.00300e+03	9.67599e-01	2.24333e+02
1013	2.27619e+02	1.01300e+03	9.66001e-01	2.27667e+02
1023	2.31001e+02	1.02300e+03	9.64729e-01	2.31000e+02
1033	2.34376e+02	1.03300e+03	9.63353e-01	2.34333e+02
1043	2.37749e+02	1.04300e+03	9.62015e-01	2.37667e+02
1053	2.41122e+02	1.05300e+03	9.60644e-01	2.41000e+02
1063	2.44486e+02	1.06300e+03	9.59278e-01	2.44333e+02
1073	2.47851e+02	1.07300e+03	9.57881e-01	2.47667e+02
1083	2.51216e+02	1.08300e+03	9.56656e-01	2.51000e+02
1093	2.54591e+02	1.09300e+03	9.55244e-01	2.54333e+02
1103	2.57947e+02	1.10300e+03	9.54024e-01	2.57667e+02
1113	2.61303e+02	1.11300e+03	9.52685e-01	2.61000e+02
1123	2.64669e+02	1.12300e+03	9.51257e-01	2.64333e+02
1133	2.68019e+02	1.13300e+03	9.50286e-01	2.67667e+02
1143	2.71381e+02	1.14300e+03	9.48980e-01	2.71000e+02
1153	2.74731e+02	1.15300e+03	9.47690e-01	2.74333e+02
1163	2.78085e+02	1.16300e+03	9.46396e-01	2.77667e+02
1173	2.81436e+02	1.17300e+03	9.44799e-01	2.81000e+02
1183	2.84785e+02	1.18300e+03	9.43138e-01	2.84333e+02
1193	2.88140e+02	1.19300e+03	9.41355e-01	2.87667e+02
1203	2.91493e+02	1.20300e+03	9.39397e-01	2.91000e+02
1213	2.94834e+02	1.21300e+03	9.37114e-01	2.94333e+02
1223	2.98180e+02	1.22300e+03	9.34484e-01	2.97667e+02
1233	3.01515e+02	1.23300e+03	9.31586e-01	3.01000e+02
1243	3.04858e+02	1.24300e+03	9.28364e-01	3.04333e+02
1253	3.08203e+02	1.25300e+03	9.24475e-01	3.07667e+02
1263	3.11552e+02	1.26300e+03	9.20767e-01	3.11000e+02
1273	3.14885e+02	1.27300e+03	9.16862e-01	3.14333e+02
1283	3.18229e+02	1.28300e+03	9.12881e-01	3.17667e+02
1293	3.21564e+02	1.29300e+03	9.08655e-01	3.21000e+02
1303	3.24893e+02	1.30300e+03	9.04174e-01	3.24333e+02
1313	3.28225e+02	1.31300e+03	8.99124e-01	3.27667e+02
1323	3.31558e+02	1.32300e+03	8.93185e-01	3.31000e+02
1333	3.34889e+02	1.33300e+03	8.85888e-01	3.34333e+02
1343	3.38216e+02	1.34300e+03	8.77070e-01	3.37667e+02
1353	3.41541e+02	1.35300e+03	8.66212e-01	3.41000e+02
1363	3.44862e+02	1.36300e+03	8.52675e-01	3.44333e+02
1373	3.48184e+02	1.37300e+03	8.35552e-01	3.47667e+02
1383	3.51504e+02	1.38300e+03	8.15108e-01	3.51000e+02
1393	3.54792e+02	1.39300e+03	7.89835e-01	3.54333e+02
1403	3.58124e+02	1.40300e+03	7.59263e-01	3.57667e+02
1413	3.61437e+02	1.41300e+03	7.22563e-01	3.61000e+02
1423	3.64732e+02	1.42300e+03	6.79145e-01	3.64333e+02
1433	3.68039e+02	1.43300e+03	6.28347e-01	3.67667e+02
1443	3.71341e+02	1.44300e+03	5.73245e-01	3.71000e+02
1453	3.74647e+02	1.45300e+03	5.13939e-01	3.74333e+02
1463	3.77987e+02	1.46300e+03	4.53887e-01	3.77667e+02
1473	3.81281e+02	1.47300e+03	3.94501e-01	3.81000e+02
1483	3.84602e+02	1.48300e+03	3.36249e-01	3.84333e+02
1493	3.87936e+02	1.49300e+03	2.79000e-01	3.87667e+02
1503	3.91271e+02	1.50300e+03	2.25372e-01	3.91000e+02
1513	3.94608e+02	1.51300e+03	1.77840e-01	3.94333e+02
1523	3.97955e+02	1.52300e+03	1.38156e-01	3.97667e+02
1533	4.01295e+02	1.53300e+03	1.06662e-01	4.01000e+02
1543	4.04639e+02	1.54300e+03	8.27666e-02	4.04333e+02
1553	4.07968e+02	1.55300e+03	6.59265e-02	4.07667e+02
1563	4.11291e+02	1.56300e+03	5.25928e-02	4.11000e+02
1573	4.14622e+02	1.57300e+03	4.41880e-02	4.14333e+02
1583	4.17951e+02	1.58300e+03	3.83237e-02	4.17667e+02
1593	4.21252e+02	1.59300e+03	3.43484e-02	4.21000e+02
1603	4.24581e+02	1.60300e+03	3.10214e-02	4.24333e+02
1613	4.27892e+02	1.61300e+03	2.89298e-02	4.27667e+02
1623	4.31244e+02	1.62300e+03	2.75151e-02	4.31000e+02
1633	4.34517e+02	1.63300e+03	2.55417e-02	4.34333e+02
1643	4.37810e+02	1.64300e+03	2.51354e-02	4.37667e+02
1653	4.41111e+02	1.65300e+03	2.45335e-02	4.41000e+02
1663	4.44414e+02	1.66300e+03	2.44016e-02	4.44333e+02
1673	4.47727e+02	1.67300e+03	2.41358e-02	4.47667e+02
1683	4.51016e+02	1.68300e+03	2.39334e-02	4.51000e+02
1693	4.54322e+02	1.69300e+03	2.39115e-02	4.54333e+02
1703	4.57628e+02	1.70300e+03	2.39238e-02	4.57667e+02
1713	4.60918e+02	1.71300e+03	2.36899e-02	4.61000e+02
1723	4.64226e+02	1.72300e+03	2.35761e-02	4.64333e+02
1733	4.67529e+02	1.73300e+03	2.36309e-02	4.67667e+02
1743	4.70828e+02	1.74300e+03	2.35871e-02	4.71000e+02
1753	4.74119e+02	1.75300e+03	2.36097e-02	4.74333e+02
1763	4.77417e+02	1.76300e+03	2.33723e-02	4.77667e+02
1773	4.80716e+02	1.77300e+03	2.32997e-02	4.81000e+02
1783	4.84019e+02	1.78300e+03	2.34281e-02	4.84333e+02
1793	4.87317e+02	1.79300e+03	2.33005e-02	4.87667e+02
1803	4.90620e+02	1.80300e+03	2.34511e-02	4.91000e+02
1813	4.93912e+02	1.81300e+03	2.33116e-02	4.94333e+02
1823	4.97218e+02	1.82300e+03	2.33002e-02	4.97667e+02
1833	5.00511e+02	1.83300e+03	2.32417e-02	5.01000e+02
1843	5.03815e+02	1.84300e+03	2.32306e-02	5.04333e+02
1853	5.07121e+02	1.85300e+03	2.31238e-02	5.07667e+02
1863	5.10421e+02	1.86300e+03	2.31437e-02	5.11000e+02
1873	5.13715e+02	1.87300e+03	2.30837e-02	5.14333e+02
1883	5.17019e+02	1.88300e+03	2.30751e-02	5.17667e+02
1893	5.20345e+02	1.89300e+03	2.31827e-02	5.21000e+02
1903	5.23637e+02	1.90300e+03	2.29969e-02	5.24333e+02
1913	5.26951e+02	1.91300e+03	2.29582e-02	5.27667e+02
1923	5.30266e+02	1.92300e+03	2.30165e-02	5.31000e+02
1933	5.33576e+02	1.93300e+03	2.28876e-02	5.34333e+02
1943	5.36889e+02	1.94300e+03	2.29940e-02	5.37667e+02
1953	5.40202e+02	1.95300e+03	2.29953e-02	5.41000e+02
1963	5.43509e+02	1.96300e+03	2.29770e-02	5.44333e+02
1973	5.46821e+02	1.97300e+03	2.29765e-02	5.47667e+02
1983	5.50141e+02	1.98300e+03	2.29236e-02	5.51000e+02
1993	5.53446e+02	1.99300e+03	2.29573e-02	5.54333e+02
2003	5.56768e+02	2.00300e+03	2.28592e-02	5.57667e+02
2013	5.60084e+02	2.01300e+03	2.28800e-02	5.61000e+02
2023	5.63397e+02	2.02300e+03	2.29661e-02	5.64333e+02
2033	5.66711e+02	2.03300e+03	2.29586e-02	5.67667e+02
2043	5.70039e+02	2.04300e+03	2.28777e-02	5.71000e+02
2053	5.73340e+02	2.05300e+03	2.28655e-02	5.74333e+02
2063	5.76664e+02	2.06300e+03	2.27297e-02	5.77667e+02
2073	5.79975e+02	2.07300e+03	2.28383e-02	5.81000e+02
2083	5.83303e+02	2.08300e+03	2.27735e-02	5.84333e+02
2093	5.86617e+02	2.09300e+03	2.28248e-02	5.87667e+02
2103	5.89944e+02	2.10300e+03	2.28040e-02	5.91000e+02
2113	5.93266e+02	2.11300e+03	2.27082e-02	5.94333e+02
2123	5.96588e+02	2.12300e+03	2.26452e-02	5.97667e+02
2133	5.99913e+02	2.13300e+03	2.27159e-02	6.01000e+02
2143	6.03233e+02	2.14300e+03	2.27946e-02	6.04333e+02
2153	6.06543e+02	2.15300e+03	2.26503e-02	6.07667e+02
2163	6.09869e+02	2.16300e+03	2.27464e-02	6.11000e+02
2173	6.13197e+02	2.17300e+03	2.28103e-02	6.14333e+02
2183	6.16507e+02	2.18300e+03	2.27269e-02	6.17667e+02
2193	6.19839e+02	2.19300e+03	2.26425e-02	6.21000e+02
2203	6.23170e+02	2.20300e+03	2.28168e-02	6.24333e+02
2213	6.26494e+02	2.21300e+03	2.26698e-02	6.27667e+02
2223	6.29837e+02	2.22300e+03	2.26277e-02	6.31000e+02
2233	6.33163e+02	2.23300e+03	2.27280e-02	6.34333e+02
2243	6.36492e+02	2.24300e+03	2.26082e-02	6.37667e+02
2253	6.39821e+02	2.25300e+03	2.25910e-02	6.41000e+02
2263	6.43147e+02	2.26300e+03	2.25060e-02	6.44333e+02
2273	6.46478e+02	2.27300e+03	2.24574e-02	6.47667e+02
2283	6.49810e+02	2.28300e+03	2.24905e-02	6.51000e+02
2293	6.53147e+02	2.29300e+03	2.25378e-02	6.54333e+02
2303	6.56466e+02	2.30300e+03	2.26524e-02	6.57667e+02
2313	6.59805e+02	2.31300e+03	2.27800e-02	6.61000e+02
2323	6.63132e+02	2.32300e+03	2.26823e-02	6.64333e+02
2333	6.66454e+02	2.33300e+03	2.26310e-02	6.67667e+02
2343	6.69788e+02	2.34300e+03	2.26179e-02	6.71000e+02
2353	6.73112e+02	2.35300e+03	2.25281e-02	6.74333e+02
2363	6.76443e+02	2.36300e+03	2.25109e-02	6.77667e+02
2373	6.79769e+02	2.37300e+03	2.25829e-02	6.81000e+02
2383	6.83109e+02	2.38300e+03	2.25633e-02	6.84333e+02
2393	6.86437e+02	2.39300e+03	2.24750e-02	6.87667e+02
2403	6.89778e+02	2.40300e+03	2.24969e-02	6.91000e+02
2413	6.92028e+02	2.41300e+03	2.25735e-02	6.94333e+02
2423	6.93924e+02	2.42300e+03	2.25037e-02	6.97667e+02
2430	6.94945e+02	2.43000e+03	2.25588e-02	7.00000e+02