Folder: Pyrolysis_BESKID/Experiments/TUBS/tga_nonisotherm (part 39)

File: tga_dynamic_n2_dyn60_piece_3mg_r3.txt
index	ts	t	weight	tr
[#]	[°C]	[s]	[mg]	[°C]
643	1.30305e+02	6.43000e+02	2.94547e+00	1.33000e+02
646	1.33357e+02	6.46000e+02	2.94540e+00	1.36000e+02
649	1.36401e+02	6.49000e+02	2.94543e+00	1.39000e+02
652	1.39445e+02	6.52000e+02	2.94551e+00	1.42000e+02
655	1.42476e+02	6.55000e+02	2.94557e+00	1.45000e+02
658	1.45515e+02	6.58000e+02	2.94554e+00	1.48000e+02
661	1.48523e+02	6.61000e+02	2.94547e+00	1.51000e+02
664	1.51558e+02	6.64000e+02	2.94538e+00	1.54000e+02
667	1.54575e+02	6.67000e+02	2.94524e+00	1.57000e+02
670	1.57584e+02	6.70000e+02	2.94503e+00	1.60000e+02
673	1.60582e+02	6.73000e+02	2.94482e+00	1.63000e+02
676	1.63607e+02	6.76000e+02	2.94461e+00	1.66000e+02
679	1.66617e+02	6.79000e+02	2.94448e+00	1.69000e+02
682	1.69613e+02	6.82000e+02	2.94442e+00	1.72000e+02
685	1.72615e+02	6.85000e+02	2.94432e+00	1.75000e+02
688	1.75614e+02	6.88000e+02	2.94411e+00	1.78000e+02
691	1.78606e+02	6.91000e+02	2.94383e+00	1.81000e+02
694	1.81616e+02	6.94000e+02	2.94349e+00	1.84000e+02
697	1.84622e+02	6.97000e+02	2.94316e+00	1.87000e+02
700	1.87608e+02	7.00000e+02	2.94286e+00	1.90000e+02
703	1.90601e+02	7.03000e+02	2.94256e+00	1.93000e+02
706	1.93594e+02	7.06000e+02	2.94221e+00	1.96000e+02
709	1.96601e+02	7.09000e+02	2.94171e+00	1.99000e+02
712	1.99604e+02	7.12000e+02	2.94107e+00	2.02000e+02
715	2.02595e+02	7.15000e+02	2.94034e+00	2.05000e+02
718	2.05601e+02	7.18000e+02	2.93945e+00	2.08000e+02
721	2.08590e+02	7.21000e+02	2.93835e+00	2.11000e+02
724	2.11577e+02	7.24000e+02	2.93714e+00	2.14000e+02
727	2.14566e+02	7.27000e+02	2.93588e+00	2.17000e+02
730	2.17510e+02	7.30000e+02	2.93458e+00	2.20000e+02
733	2.20456e+02	7.33000e+02	2.93321e+00	2.23000e+02
736	2.23407e+02	7.36000e+02	2.93172e+00	2.26000e+02
739	2.26391e+02	7.39000e+02	2.93016e+00	2.29000e+02
742	2.29388e+02	7.42000e+02	2.92852e+00	2.32000e+02
745	2.32391e+02	7.45000e+02	2.92688e+00	2.35000e+02
748	2.35403e+02	7.48000e+02	2.92523e+00	2.38000e+02
751	2.38413e+02	7.51000e+02	2.92358e+00	2.41000e+02
754	2.41416e+02	7.54000e+02	2.92188e+00	2.44000e+02
757	2.44432e+02	7.57000e+02	2.92014e+00	2.47000e+02
760	2.47466e+02	7.60000e+02	2.91838e+00	2.50000e+02
763	2.50476e+02	7.63000e+02	2.91659e+00	2.53000e+02
766	2.53471e+02	7.66000e+02	2.91472e+00	2.56000e+02
769	2.56472e+02	7.69000e+02	2.91270e+00	2.59000e+02
772	2.59551e+02	7.72000e+02	2.91057e+00	2.62000e+02
775	2.62586e+02	7.75000e+02	2.90838e+00	2.65000e+02
778	2.65617e+02	7.78000e+02	2.90616e+00	2.68000e+02
781	2.68572e+02	7.81000e+02	2.90393e+00	2.71000e+02
784	2.71591e+02	7.84000e+02	2.90163e+00	2.74000e+02
787	2.74617e+02	7.87000e+02	2.89926e+00	2.77000e+02
790	2.77653e+02	7.90000e+02	2.89676e+00	2.80000e+02
793	2.80664e+02	7.93000e+02	2.89416e+00	2.83000e+02
796	2.83705e+02	7.96000e+02	2.89147e+00	2.86000e+02
799	2.86729e+02	7.99000e+02	2.88872e+00	2.89000e+02
802	2.89762e+02	8.02000e+02	2.88579e+00	2.92000e+02
805	2.92806e+02	8.05000e+02	2.88270e+00	2.95000e+02
808	2.95902e+02	8.08000e+02	2.87942e+00	2.98000e+02
811	2.98972e+02	8.11000e+02	2.87599e+00	3.01000e+02
814	3.02041e+02	8.14000e+02	2.87231e+00	3.04000e+02
817	3.05089e+02	8.17000e+02	2.86836e+00	3.07000e+02
820	3.08134e+02	8.20000e+02	2.86401e+00	3.10000e+02
823	3.11203e+02	8.23000e+02	2.85927e+00	3.13000e+02
826	3.14279e+02	8.26000e+02	2.85391e+00	3.16000e+02
829	3.17320e+02	8.29000e+02	2.84805e+00	3.19000e+02
832	3.20347e+02	8.32000e+02	2.84167e+00	3.22000e+02
835	3.23371e+02	8.35000e+02	2.83488e+00	3.25000e+02
838	3.26392e+02	8.38000e+02	2.82750e+00	3.28000e+02
841	3.29379e+02	8.41000e+02	2.81976e+00	3.31000e+02
844	3.32392e+02	8.44000e+02	2.81170e+00	3.34000e+02
847	3.35411e+02	8.47000e+02	2.80333e+00	3.37000e+02
850	3.38423e+02	8.50000e+02	2.79443e+00	3.40000e+02
853	3.41455e+02	8.53000e+02	2.78492e+00	3.43000e+02
856	3.44467e+02	8.56000e+02	2.77457e+00	3.46000e+02
859	3.47463e+02	8.59000e+02	2.76321e+00	3.49000e+02
862	3.50453e+02	8.62000e+02	2.74972e+00	3.52000e+02
865	3.53456e+02	8.65000e+02	2.73354e+00	3.55000e+02
868	3.56456e+02	8.68000e+02	2.71418e+00	3.58000e+02
871	3.59452e+02	8.71000e+02	2.69167e+00	3.61000e+02
874	3.62494e+02	8.74000e+02	2.66418e+00	3.64000e+02
877	3.65511e+02	8.77000e+02	2.62886e+00	3.67000e+02
880	3.68529e+02	8.80000e+02	2.58303e+00	3.70000e+02
883	3.71592e+02	8.83000e+02	2.52758e+00	3.73000e+02
886	3.74617e+02	8.86000e+02	2.45971e+00	3.76000e+02
889	3.77587e+02	8.89000e+02	2.38161e+00	3.79000e+02
892	3.80512e+02	8.92000e+02	2.29287e+00	3.82000e+02
895	3.83413e+02	8.95000e+02	2.19473e+00	3.85000e+02
898	3.86299e+02	8.98000e+02	2.08479e+00	3.88000e+02
901	3.89156e+02	9.01000e+02	1.96633e+00	3.91000e+02
904	3.92105e+02	9.04000e+02	1.84027e+00	3.94000e+02
907	3.95074e+02	9.07000e+02	1.71010e+00	3.97000e+02
910	3.98093e+02	9.10000e+02	1.57482e+00	4.00000e+02
913	4.01368e+02	9.13000e+02	1.43819e+00	4.03000e+02
916	4.04352e+02	9.16000e+02	1.30199e+00	4.06000e+02
919	4.07198e+02	9.19000e+02	1.16697e+00	4.09000e+02
922	4.10243e+02	9.22000e+02	1.03329e+00	4.12000e+02
925	4.13226e+02	9.25000e+02	8.99275e-01	4.15000e+02
928	4.16222e+02	9.28000e+02	7.65176e-01	4.18000e+02
931	4.19251e+02	9.31000e+02	6.33193e-01	4.21000e+02
934	4.22221e+02	9.34000e+02	5.05552e-01	4.24000e+02
937	4.25147e+02	9.37000e+02	3.92773e-01	4.27000e+02
940	4.28124e+02	9.40000e+02	2.99207e-01	4.30000e+02
943	4.31080e+02	9.43000e+02	2.24069e-01	4.33000e+02
946	4.34097e+02	9.46000e+02	1.69424e-01	4.36000e+02
949	4.37109e+02	9.49000e+02	1.29574e-01	4.39000e+02
952	4.40211e+02	9.52000e+02	1.01330e-01	4.42000e+02
955	4.43226e+02	9.55000e+02	8.13304e-02	4.45000e+02
958	4.46264e+02	9.58000e+02	6.75335e-02	4.48000e+02
961	4.49256e+02	9.61000e+02	5.76633e-02	4.51000e+02
964	4.52353e+02	9.64000e+02	5.04706e-02	4.54000e+02
967	4.55417e+02	9.67000e+02	4.50307e-02	4.57000e+02
970	4.58706e+02	9.70000e+02	4.14940e-02	4.60000e+02
973	4.62418e+02	9.73000e+02	3.87681e-02	4.63000e+02
976	4.65484e+02	9.76000e+02	3.66928e-02	4.66000e+02
979	4.68263e+02	9.79000e+02	3.51157e-02	4.69000e+02
982	4.71285e+02	9.82000e+02	3.41514e-02	4.72000e+02
985	4.74357e+02	9.85000e+02	3.35050e-02	4.75000e+02
988	4.77302e+02	9.88000e+02	3.30764e-02	4.78000e+02
991	4.80209e+02	9.91000e+02	3.27513e-02	4.81000e+02
994	4.84366e+02	9.94000e+02	3.25311e-02	4.84000e+02
997	4.87062e+02	9.97000e+02	3.23543e-02	4.87000e+02
1000	4.89844e+02	1.00000e+03	3.22086e-02	4.90000e+02
1003	4.92783e+02	1.00300e+03	3.20986e-02	4.93000e+02
1006	4.95606e+02	1.00600e+03	3.20249e-02	4.96000e+02
1009	4.98593e+02	1.00900e+03	3.19559e-02	4.99000e+02
1012	5.01504e+02	1.01200e+03	3.18778e-02	5.02000e+02
1015	5.04424e+02	1.01500e+03	3.17872e-02	5.05000e+02
1018	5.07401e+02	1.01800e+03	3.17078e-02	5.08000e+02
1021	5.10345e+02	1.02100e+03	3.16706e-02	5.11000e+02
1024	5.13274e+02	1.02400e+03	3.16433e-02	5.14000e+02
1027	5.16207e+02	1.02700e+03	3.16046e-02	5.17000e+02
1030	5.19278e+02	1.03000e+03	3.15372e-02	5.20000e+02
1033	5.22178e+02	1.03300e+03	3.14697e-02	5.23000e+02
1036	5.25137e+02	1.03600e+03	3.14168e-02	5.26000e+02
1039	5.28113e+02	1.03900e+03	3.13565e-02	5.29000e+02
1042	5.31131e+02	1.04200e+03	3.12836e-02	5.32000e+02
1045	5.34083e+02	1.04500e+03	3.12100e-02	5.35000e+02
1048	5.36987e+02	1.04800e+03	3.11467e-02	5.38000e+02
1051	5.39964e+02	1.05100e+03	3.10931e-02	5.41000e+02
1054	5.42920e+02	1.05400e+03	3.10423e-02	5.44000e+02
1057	5.45845e+02	1.05700e+03	3.09944e-02	5.47000e+02
1060	5.48926e+02	1.06000e+03	3.09623e-02	5.50000e+02
1063	5.51809e+02	1.06300e+03	3.09445e-02	5.53000e+02
1066	5.54739e+02	1.06600e+03	3.09672e-02	5.56000e+02
1069	5.57790e+02	1.06900e+03	3.10053e-02	5.59000e+02
1072	5.60598e+02	1.07200e+03	3.10131e-02	5.62000e+02
1075	5.63357e+02	1.07500e+03	3.10073e-02	5.65000e+02
1078	5.66226e+02	1.07800e+03	3.09848e-02	5.68000e+02
1081	5.69076e+02	1.08100e+03	3.09629e-02	5.71000e+02
1084	5.71971e+02	1.08400e+03	3.09452e-02	5.74000e+02
1087	5.74799e+02	1.08700e+03	3.09169e-02	5.77000e+02
1090	5.77626e+02	1.09000e+03	3.08732e-02	5.80000e+02
1093	5.80538e+02	1.09300e+03	3.08335e-02	5.83000e+02
1096	5.83435e+02	1.09600e+03	3.08091e-02	5.86000e+02
1099	5.86317e+02	1.09900e+03	3.08050e-02	5.89000e+02
1102	5.89207e+02	1.10200e+03	3.08209e-02	5.92000e+02
1105	5.92084e+02	1.10500e+03	3.08355e-02	5.95000e+02
1108	5.94992e+02	1.10800e+03	3.08330e-02	5.98000e+02
1111	5.97946e+02	1.11100e+03	3.08155e-02	6.01000e+02
1114	6.00847e+02	1.11400e+03	3.07773e-02	6.04000e+02
1117	6.03779e+02	1.11700e+03	3.07286e-02	6.07000e+02
1120	6.06714e+02	1.12000e+03	3.06828e-02	6.10000e+02
1123	6.09642e+02	1.12300e+03	3.06597e-02	6.13000e+02
1126	6.12541e+02	1.12600e+03	3.06670e-02	6.16000e+02
1129	6.15406e+02	1.12900e+03	3.06764e-02	6.19000e+02
1132	6.18315e+02	1.13200e+03	3.06634e-02	6.22000e+02
1135	6.21257e+02	1.13500e+03	3.06299e-02	6.25000e+02
1138	6.24218e+02	1.13800e+03	3.05923e-02	6.28000e+02
1141	6.27179e+02	1.14100e+03	3.05813e-02	6.31000e+02
1144	6.30141e+02	1.14400e+03	3.05769e-02	6.34000e+02
1147	6.33153e+02	1.14700e+03	3.05660e-02	6.37000e+02
1150	6.36124e+02	1.15000e+03	3.05464e-02	6.40000e+02
1153	6.39094e+02	1.15300e+03	3.05221e-02	6.43000e+02
1156	6.42089e+02	1.15600e+03	3.04942e-02	6.46000e+02
1159	6.45075e+02	1.15900e+03	3.04786e-02	6.49000e+02
1162	6.48079e+02	1.16200e+03	3.04586e-02	6.52000e+02
1165	6.51075e+02	1.16500e+03	3.04282e-02	6.55000e+02
1168	6.54048e+02	1.16800e+03	3.04227e-02	6.58000e+02
1171	6.57014e+02	1.17100e+03	3.04181e-02	6.61000e+02
1174	6.59993e+02	1.17400e+03	3.04215e-02	6.64000e+02
1177	6.62973e+02	1.17700e+03	3.04316e-02	6.67000e+02
1180	6.65970e+02	1.18000e+03	3.04420e-02	6.70000e+02
1183	6.68916e+02	1.18300e+03	3.04499e-02	6.73000e+02
1186	6.70790e+02	1.18600e+03	3.04923e-02	6.76000e+02
1189	6.72933e+02	1.18900e+03	3.06222e-02	6.79000e+02
1192	6.74999e+02	1.19200e+03	3.07219e-02	6.82000e+02
1195	6.76865e+02	1.19500e+03	3.06993e-02	6.85000e+02
1198	6.78558e+02	1.19800e+03	3.05551e-02	6.88000e+02
1201	6.80120e+02	1.20100e+03	3.04752e-02	6.91000e+02
1204	6.81548e+02	1.20400e+03	3.04461e-02	6.94000e+02
1207	6.82873e+02	1.20700e+03	3.04134e-02	6.97000e+02
1210	6.84100e+02	1.21000e+03	3.03763e-02	7.00000e+02

File: tga_dynamic_n2_dyn60_piece_6mg_r1.txt
index	ts	t	weight	tr
[#]	[°C]	[s]	[mg]	[°C]
643	1.30992e+02	6.43000e+02	5.93067e+00	1.33000e+02
646	1.34161e+02	6.46000e+02	5.93061e+00	1.36000e+02
649	1.37325e+02	6.49000e+02	5.93054e+00	1.39000e+02
652	1.40484e+02	6.52000e+02	5.93049e+00	1.42000e+02
655	1.43651e+02	6.55000e+02	5.93046e+00	1.45000e+02
658	1.46753e+02	6.58000e+02	5.93044e+00	1.48000e+02
661	1.49867e+02	6.61000e+02	5.93034e+00	1.51000e+02
664	1.53007e+02	6.64000e+02	5.93017e+00	1.54000e+02
667	1.56131e+02	6.67000e+02	5.93000e+00	1.57000e+02
670	1.59231e+02	6.70000e+02	5.92981e+00	1.60000e+02
673	1.62341e+02	6.73000e+02	5.92961e+00	1.63000e+02
676	1.65437e+02	6.76000e+02	5.92945e+00	1.66000e+02
679	1.68526e+02	6.79000e+02	5.92933e+00	1.69000e+02
682	1.71628e+02	6.82000e+02	5.92924e+00	1.72000e+02
685	1.74720e+02	6.85000e+02	5.92910e+00	1.75000e+02
688	1.77799e+02	6.88000e+02	5.92886e+00	1.78000e+02
691	1.80894e+02	6.91000e+02	5.92852e+00	1.81000e+02
694	1.83975e+02	6.94000e+02	5.92813e+00	1.84000e+02
697	1.87052e+02	6.97000e+02	5.92771e+00	1.87000e+02
700	1.90138e+02	7.00000e+02	5.92717e+00	1.90000e+02
703	1.93215e+02	7.03000e+02	5.92653e+00	1.93000e+02
706	1.96329e+02	7.06000e+02	5.92570e+00	1.96000e+02
709	1.99407e+02	7.09000e+02	5.92470e+00	1.99000e+02
712	2.02485e+02	7.12000e+02	5.92349e+00	2.02000e+02
715	2.05622e+02	7.15000e+02	5.92211e+00	2.05000e+02
718	2.08730e+02	7.18000e+02	5.92043e+00	2.08000e+02
721	2.11778e+02	7.21000e+02	5.91845e+00	2.11000e+02
724	2.14875e+02	7.24000e+02	5.91619e+00	2.14000e+02
727	2.17931e+02	7.27000e+02	5.91373e+00	2.17000e+02
730	2.21033e+02	7.30000e+02	5.91105e+00	2.20000e+02
733	2.24157e+02	7.33000e+02	5.90829e+00	2.23000e+02
736	2.27253e+02	7.36000e+02	5.90547e+00	2.26000e+02
739	2.30360e+02	7.39000e+02	5.90261e+00	2.29000e+02
742	2.33443e+02	7.42000e+02	5.89965e+00	2.32000e+02
745	2.36521e+02	7.45000e+02	5.89661e+00	2.35000e+02
748	2.39566e+02	7.48000e+02	5.89346e+00	2.38000e+02
751	2.42679e+02	7.51000e+02	5.89027e+00	2.41000e+02
754	2.45699e+02	7.54000e+02	5.88700e+00	2.44000e+02
757	2.48819e+02	7.57000e+02	5.88367e+00	2.47000e+02
760	2.51935e+02	7.60000e+02	5.88026e+00	2.50000e+02
763	2.55059e+02	7.63000e+02	5.87679e+00	2.53000e+02
766	2.58161e+02	7.66000e+02	5.87323e+00	2.56000e+02
769	2.61249e+02	7.69000e+02	5.86953e+00	2.59000e+02
772	2.64347e+02	7.72000e+02	5.86568e+00	2.62000e+02
775	2.67420e+02	7.75000e+02	5.86171e+00	2.65000e+02
778	2.70515e+02	7.78000e+02	5.85756e+00	2.68000e+02
781	2.73602e+02	7.81000e+02	5.85325e+00	2.71000e+02
784	2.76685e+02	7.84000e+02	5.84876e+00	2.74000e+02
787	2.79740e+02	7.87000e+02	5.84413e+00	2.77000e+02
790	2.82807e+02	7.90000e+02	5.83930e+00	2.80000e+02
793	2.85868e+02	7.93000e+02	5.83430e+00	2.83000e+02
796	2.88831e+02	7.96000e+02	5.82892e+00	2.86000e+02
799	2.91895e+02	7.99000e+02	5.82289e+00	2.89000e+02
802	2.94940e+02	8.02000e+02	5.81571e+00	2.92000e+02
805	2.97973e+02	8.05000e+02	5.80782e+00	2.95000e+02
808	3.01039e+02	8.08000e+02	5.79968e+00	2.98000e+02
811	3.04119e+02	8.11000e+02	5.79139e+00	3.01000e+02
814	3.07176e+02	8.14000e+02	5.78283e+00	3.04000e+02
817	3.10204e+02	8.17000e+02	5.77378e+00	3.07000e+02
820	3.13226e+02	8.20000e+02	5.76401e+00	3.10000e+02
823	3.16260e+02	8.23000e+02	5.75353e+00	3.13000e+02
826	3.19233e+02	8.26000e+02	5.74189e+00	3.16000e+02
829	3.22207e+02	8.29000e+02	5.72924e+00	3.19000e+02
832	3.25166e+02	8.32000e+02	5.71553e+00	3.22000e+02
835	3.28087e+02	8.35000e+02	5.70098e+00	3.25000e+02
838	3.30981e+02	8.38000e+02	5.68531e+00	3.28000e+02
841	3.33886e+02	8.41000e+02	5.66896e+00	3.31000e+02
844	3.36761e+02	8.44000e+02	5.65199e+00	3.34000e+02
847	3.39573e+02	8.47000e+02	5.63439e+00	3.37000e+02
850	3.42369e+02	8.50000e+02	5.61528e+00	3.40000e+02
853	3.45179e+02	8.53000e+02	5.59366e+00	3.43000e+02
856	3.48104e+02	8.56000e+02	5.56850e+00	3.46000e+02
859	3.51081e+02	8.59000e+02	5.53988e+00	3.49000e+02
862	3.54062e+02	8.62000e+02	5.50538e+00	3.52000e+02
865	3.57012e+02	8.65000e+02	5.46601e+00	3.55000e+02
868	3.59984e+02	8.68000e+02	5.41890e+00	3.58000e+02
871	3.62935e+02	8.71000e+02	5.36347e+00	3.61000e+02
874	3.66001e+02	8.74000e+02	5.29682e+00	3.64000e+02
877	3.68918e+02	8.77000e+02	5.21644e+00	3.67000e+02
880	3.71774e+02	8.80000e+02	5.11959e+00	3.70000e+02
883	3.74669e+02	8.83000e+02	5.00627e+00	3.73000e+02
886	3.77460e+02	8.86000e+02	4.87400e+00	3.76000e+02
889	3.80291e+02	8.89000e+02	4.72484e+00	3.79000e+02
892	3.83176e+02	8.92000e+02	4.55839e+00	3.82000e+02
895	3.86036e+02	8.95000e+02	4.37482e+00	3.85000e+02
898	3.88919e+02	8.98000e+02	4.17104e+00	3.88000e+02
901	3.91830e+02	9.01000e+02	3.95236e+00	3.91000e+02
904	3.94772e+02	9.04000e+02	3.71786e+00	3.94000e+02
907	3.97755e+02	9.07000e+02	3.47346e+00	3.97000e+02
910	4.00660e+02	9.10000e+02	3.22188e+00	4.00000e+02
913	4.03641e+02	9.13000e+02	2.96684e+00	4.03000e+02
916	4.06690e+02	9.16000e+02	2.71156e+00	4.06000e+02
919	4.09654e+02	9.19000e+02	2.45705e+00	4.09000e+02
922	4.12550e+02	9.22000e+02	2.20441e+00	4.12000e+02
925	4.15470e+02	9.25000e+02	1.95276e+00	4.15000e+02
928	4.18408e+02	9.28000e+02	1.70071e+00	4.18000e+02
931	4.21336e+02	9.31000e+02	1.44815e+00	4.21000e+02
934	4.24387e+02	9.34000e+02	1.19738e+00	4.24000e+02
937	4.27581e+02	9.37000e+02	9.51283e-01	4.27000e+02
940	4.30662e+02	9.40000e+02	7.26932e-01	4.30000e+02
943	4.33963e+02	9.43000e+02	5.35768e-01	4.33000e+02
946	4.37173e+02	9.46000e+02	3.84933e-01	4.36000e+02
949	4.40449e+02	9.49000e+02	2.69785e-01	4.39000e+02
952	4.43625e+02	9.52000e+02	1.89476e-01	4.42000e+02
955	4.46726e+02	9.55000e+02	1.31494e-01	4.45000e+02
958	4.49873e+02	9.58000e+02	9.41751e-02	4.48000e+02
961	4.53171e+02	9.61000e+02	6.73671e-02	4.51000e+02
964	4.56510e+02	9.64000e+02	4.90158e-02	4.54000e+02
967	4.59869e+02	9.67000e+02	3.42337e-02	4.57000e+02
970	4.62784e+02	9.70000e+02	2.42370e-02	4.60000e+02
973	4.65730e+02	9.73000e+02	1.67078e-02	4.63000e+02
976	4.68700e+02	9.76000e+02	1.11063e-02	4.66000e+02
979	4.71672e+02	9.79000e+02	6.89093e-03	4.69000e+02
982	4.74635e+02	9.82000e+02	4.33231e-03	4.72000e+02
985	4.77615e+02	9.85000e+02	2.60913e-03	4.75000e+02
988	4.80588e+02	9.88000e+02	1.44040e-03	4.78000e+02
991	4.83560e+02	9.91000e+02	5.75518e-04	4.81000e+02
994	4.86562e+02	9.94000e+02	-1.85286e-07	4.84000e+02
997	4.89614e+02	9.97000e+02	-5.01234e-04	4.87000e+02
1000	4.92500e+02	1.00000e+03	-9.36344e-04	4.90000e+02
1003	4.95491e+02	1.00300e+03	-1.31946e-03	4.93000e+02
1006	4.98548e+02	1.00600e+03	-1.66483e-03	4.96000e+02
1009	5.01496e+02	1.00900e+03	-2.02445e-03	4.99000e+02
1012	5.04607e+02	1.01200e+03	-2.36837e-03	5.02000e+02
1015	5.07516e+02	1.01500e+03	-2.66751e-03	5.05000e+02
1018	5.10435e+02	1.01800e+03	-2.88789e-03	5.08000e+02
1021	5.13409e+02	1.02100e+03	-3.04946e-03	5.11000e+02
1024	5.16378e+02	1.02400e+03	-3.16064e-03	5.14000e+02
1027	5.19207e+02	1.02700e+03	-3.27104e-03	5.17000e+02
1030	5.22122e+02	1.03000e+03	-3.41049e-03	5.20000e+02
1033	5.25339e+02	1.03300e+03	-3.58480e-03	5.23000e+02
1036	5.28104e+02	1.03600e+03	-3.77724e-03	5.26000e+02
1039	5.30776e+02	1.03900e+03	-3.95404e-03	5.29000e+02
1042	5.33576e+02	1.04200e+03	-4.10004e-03	5.32000e+02
1045	5.36412e+02	1.04500e+03	-4.23551e-03	5.35000e+02
1048	5.39257e+02	1.04800e+03	-4.37191e-03	5.38000e+02
1051	5.42167e+02	1.05100e+03	-4.49725e-03	5.41000e+02
1054	5.45114e+02	1.05400e+03	-4.61354e-03	5.44000e+02
1057	5.48215e+02	1.05700e+03	-4.75300e-03	5.47000e+02
1060	5.51230e+02	1.06000e+03	-4.92250e-03	5.50000e+02
1063	5.54093e+02	1.06300e+03	-5.06740e-03	5.53000e+02
1066	5.57183e+02	1.06600e+03	-5.13866e-03	5.56000e+02
1069	5.60001e+02	1.06900e+03	-5.18138e-03	5.59000e+02
1072	5.62781e+02	1.07200e+03	-5.26977e-03	5.62000e+02
1075	5.65631e+02	1.07500e+03	-5.39032e-03	5.65000e+02
1078	5.68480e+02	1.07800e+03	-5.53354e-03	5.68000e+02
1081	5.71352e+02	1.08100e+03	-5.65684e-03	5.71000e+02
1084	5.74178e+02	1.08400e+03	-5.77850e-03	5.74000e+02
1087	5.77072e+02	1.08700e+03	-5.93132e-03	5.77000e+02
1090	5.79922e+02	1.09000e+03	-6.13212e-03	5.80000e+02
1093	5.82765e+02	1.09300e+03	-6.31091e-03	5.83000e+02
1096	5.85607e+02	1.09600e+03	-6.41583e-03	5.86000e+02
1099	5.88458e+02	1.09900e+03	-6.48156e-03	5.89000e+02
1102	5.91313e+02	1.10200e+03	-6.52255e-03	5.92000e+02
1105	5.94203e+02	1.10500e+03	-6.58486e-03	5.95000e+02
1108	5.97173e+02	1.10800e+03	-6.67010e-03	5.98000e+02
1111	6.00033e+02	1.11100e+03	-6.79284e-03	6.01000e+02
1114	6.02983e+02	1.11400e+03	-6.95325e-03	6.04000e+02
1117	6.06025e+02	1.11700e+03	-7.08892e-03	6.07000e+02
1120	6.09190e+02	1.12000e+03	-7.14444e-03	6.10000e+02
1123	6.12710e+02	1.12300e+03	-7.13361e-03	6.13000e+02
1126	6.16267e+02	1.12600e+03	-7.08649e-03	6.16000e+02
1129	6.18514e+02	1.12900e+03	-7.11678e-03	6.19000e+02
1132	6.21224e+02	1.13200e+03	-7.20885e-03	6.22000e+02
1135	6.24086e+02	1.13500e+03	-7.30884e-03	6.25000e+02
1138	6.26934e+02	1.13800e+03	-7.39030e-03	6.28000e+02
1141	6.29805e+02	1.14100e+03	-7.45746e-03	6.31000e+02
1144	6.32624e+02	1.14400e+03	-7.51988e-03	6.34000e+02
1147	6.35499e+02	1.14700e+03	-7.56349e-03	6.37000e+02
1150	6.38424e+02	1.15000e+03	-7.62679e-03	6.40000e+02
1153	6.41352e+02	1.15300e+03	-7.75138e-03	6.43000e+02
1156	6.44304e+02	1.15600e+03	-7.87203e-03	6.46000e+02
1159	6.47244e+02	1.15900e+03	-7.96378e-03	6.49000e+02
1162	6.50192e+02	1.16200e+03	-8.01206e-03	6.52000e+02
1165	6.53127e+02	1.16500e+03	-8.06223e-03	6.55000e+02
1168	6.56105e+02	1.16800e+03	-8.13207e-03	6.58000e+02
1171	6.59083e+02	1.17100e+03	-8.20593e-03	6.61000e+02
1174	6.62054e+02	1.17400e+03	-8.25716e-03	6.64000e+02
1177	6.65036e+02	1.17700e+03	-8.26713e-03	6.67000e+02
1180	6.68050e+02	1.18000e+03	-8.28640e-03	6.70000e+02
1183	6.71026e+02	1.18300e+03	-8.35149e-03	6.73000e+02
1186	6.72725e+02	1.18600e+03	-8.43508e-03	6.76000e+02
1189	6.74774e+02	1.18900e+03	-8.40162e-03	6.79000e+02
1192	6.76979e+02	1.19200e+03	-8.33463e-03	6.82000e+02
1195	6.79384e+02	1.19500e+03	-8.35558e-03	6.85000e+02
1198	6.81691e+02	1.19800e+03	-8.48637e-03	6.88000e+02
1201	6.83419e+02	1.20100e+03	-8.58441e-03	6.91000e+02
1204	6.85125e+02	1.20400e+03	-8.66629e-03	6.94000e+02
1207	6.86312e+02	1.20700e+03	-8.74930e-03	6.97000e+02
1210	6.87424e+02	1.21000e+03	-8.76712e-03	7.00000e+02