Folder: Pyrolysis_BESKID/Experiments/TUBS/tga_nonisotherm (part 4)

File: tga_dynamic_n2_dyn5_piece_3mg_r2.txt
index	ts	t	weight	tr
[#]	[°C]	[s]	[mg]	[°C]
1083	1.30920e+02	1.08300e+03	2.97847e+00	1.30250e+02
1120	1.34034e+02	1.12000e+03	2.97804e+00	1.33333e+02
1157	1.37138e+02	1.15700e+03	2.97789e+00	1.36417e+02
1194	1.40266e+02	1.19400e+03	2.97778e+00	1.39500e+02
1231	1.43379e+02	1.23100e+03	2.97732e+00	1.42583e+02
1268	1.46504e+02	1.26800e+03	2.97725e+00	1.45667e+02
1305	1.49611e+02	1.30500e+03	2.97685e+00	1.48750e+02
1342	1.52733e+02	1.34200e+03	2.97641e+00	1.51833e+02
1379	1.55838e+02	1.37900e+03	2.97631e+00	1.54917e+02
1416	1.58934e+02	1.41600e+03	2.97577e+00	1.58000e+02
1453	1.62038e+02	1.45300e+03	2.97513e+00	1.61083e+02
1490	1.65152e+02	1.49000e+03	2.97406e+00	1.64167e+02
1527	1.68270e+02	1.52700e+03	2.97244e+00	1.67250e+02
1564	1.71386e+02	1.56400e+03	2.97029e+00	1.70333e+02
1601	1.74488e+02	1.60100e+03	2.96731e+00	1.73417e+02
1638	1.77590e+02	1.63800e+03	2.96373e+00	1.76500e+02
1675	1.80710e+02	1.67500e+03	2.95990e+00	1.79583e+02
1712	1.83808e+02	1.71200e+03	2.95527e+00	1.82667e+02
1749	1.86909e+02	1.74900e+03	2.95021e+00	1.85750e+02
1786	1.89995e+02	1.78600e+03	2.94512e+00	1.88833e+02
1823	1.93081e+02	1.82300e+03	2.94005e+00	1.91917e+02
1860	1.96169e+02	1.86000e+03	2.93514e+00	1.95000e+02
1897	1.99255e+02	1.89700e+03	2.92988e+00	1.98083e+02
1934	2.02348e+02	1.93400e+03	2.92497e+00	2.01167e+02
1971	2.05447e+02	1.97100e+03	2.92009e+00	2.04250e+02
2008	2.08529e+02	2.00800e+03	2.91482e+00	2.07333e+02
2045	2.11612e+02	2.04500e+03	2.90995e+00	2.10417e+02
2082	2.14701e+02	2.08200e+03	2.90495e+00	2.13500e+02
2119	2.17770e+02	2.11900e+03	2.90025e+00	2.16583e+02
2156	2.20850e+02	2.15600e+03	2.89530e+00	2.19667e+02
2193	2.23950e+02	2.19300e+03	2.89055e+00	2.22750e+02
2230	2.27015e+02	2.23000e+03	2.88614e+00	2.25833e+02
2267	2.30096e+02	2.26700e+03	2.88168e+00	2.28917e+02
2304	2.33166e+02	2.30400e+03	2.87777e+00	2.32000e+02
2341	2.36235e+02	2.34100e+03	2.87354e+00	2.35083e+02
2378	2.39319e+02	2.37800e+03	2.86966e+00	2.38167e+02
2415	2.42413e+02	2.41500e+03	2.86580e+00	2.41250e+02
2452	2.45535e+02	2.45200e+03	2.86213e+00	2.44333e+02
2489	2.48655e+02	2.48900e+03	2.85840e+00	2.47417e+02
2526	2.51759e+02	2.52600e+03	2.85510e+00	2.50500e+02
2563	2.54817e+02	2.56300e+03	2.85171e+00	2.53583e+02
2600	2.58071e+02	2.60000e+03	2.84823e+00	2.56667e+02
2637	2.61182e+02	2.63700e+03	2.84485e+00	2.59750e+02
2674	2.64311e+02	2.67400e+03	2.84126e+00	2.62833e+02
2711	2.67394e+02	2.71100e+03	2.83748e+00	2.65917e+02
2748	2.70483e+02	2.74800e+03	2.83319e+00	2.69000e+02
2785	2.73557e+02	2.78500e+03	2.82825e+00	2.72083e+02
2822	2.76655e+02	2.82200e+03	2.82288e+00	2.75167e+02
2859	2.79768e+02	2.85900e+03	2.81627e+00	2.78250e+02
2896	2.82953e+02	2.89600e+03	2.80862e+00	2.81333e+02
2933	2.86031e+02	2.93300e+03	2.79993e+00	2.84417e+02
2970	2.89079e+02	2.97000e+03	2.79017e+00	2.87500e+02
3007	2.92188e+02	3.00700e+03	2.77925e+00	2.90583e+02
3044	2.95229e+02	3.04400e+03	2.76774e+00	2.93667e+02
3081	2.98354e+02	3.08100e+03	2.75588e+00	2.96750e+02
3118	3.01460e+02	3.11800e+03	2.74360e+00	2.99833e+02
3155	3.04599e+02	3.15500e+03	2.73072e+00	3.02917e+02
3192	3.07693e+02	3.19200e+03	2.71743e+00	3.06000e+02
3229	3.10885e+02	3.22900e+03	2.70228e+00	3.09083e+02
3266	3.14067e+02	3.26600e+03	2.68533e+00	3.12167e+02
3303	3.17260e+02	3.30300e+03	2.66511e+00	3.15250e+02
3340	3.20404e+02	3.34000e+03	2.64082e+00	3.18333e+02
3377	3.23535e+02	3.37700e+03	2.61139e+00	3.21417e+02
3414	3.26760e+02	3.41400e+03	2.57547e+00	3.24500e+02
3451	3.29927e+02	3.45100e+03	2.53056e+00	3.27583e+02
3488	3.33060e+02	3.48800e+03	2.47614e+00	3.30667e+02
3525	3.36236e+02	3.52500e+03	2.40968e+00	3.33750e+02
3562	3.39456e+02	3.56200e+03	2.32872e+00	3.36833e+02
3599	3.42518e+02	3.59900e+03	2.23272e+00	3.39917e+02
3636	3.45659e+02	3.63600e+03	2.12020e+00	3.43000e+02
3673	3.48759e+02	3.67300e+03	1.99080e+00	3.46083e+02
3710	3.51803e+02	3.71000e+03	1.84516e+00	3.49167e+02
3747	3.54742e+02	3.74700e+03	1.68565e+00	3.52250e+02
3784	3.57717e+02	3.78400e+03	1.51588e+00	3.55333e+02
3821	3.60763e+02	3.82100e+03	1.33953e+00	3.58417e+02
3858	3.63875e+02	3.85800e+03	1.16170e+00	3.61500e+02
3895	3.66912e+02	3.89500e+03	9.83829e-01	3.64583e+02
3932	3.69930e+02	3.93200e+03	8.04778e-01	3.67667e+02
3969	3.72950e+02	3.96900e+03	6.40338e-01	3.70750e+02
4006	3.76008e+02	4.00600e+03	4.96747e-01	3.73833e+02
4043	3.79017e+02	4.04300e+03	3.76447e-01	3.76917e+02
4080	3.82010e+02	4.08000e+03	2.80410e-01	3.80000e+02
4117	3.85008e+02	4.11700e+03	2.06489e-01	3.83083e+02
4154	3.88061e+02	4.15400e+03	1.50892e-01	3.86167e+02
4191	3.91136e+02	4.19100e+03	1.10964e-01	3.89250e+02
4228	3.94255e+02	4.22800e+03	8.21850e-02	3.92333e+02
4265	3.97384e+02	4.26500e+03	6.22247e-02	3.95417e+02
4302	4.00488e+02	4.30200e+03	4.78460e-02	3.98500e+02
4339	4.03600e+02	4.33900e+03	3.70386e-02	4.01583e+02
4376	4.07095e+02	4.37600e+03	2.93250e-02	4.04667e+02
4413	4.10246e+02	4.41300e+03	2.31669e-02	4.07750e+02
4450	4.13209e+02	4.45000e+03	1.87228e-02	4.10833e+02
4487	4.16298e+02	4.48700e+03	1.48913e-02	4.13917e+02
4524	4.19208e+02	4.52400e+03	1.19010e-02	4.17000e+02
4561	4.22180e+02	4.56100e+03	9.58243e-03	4.20083e+02
4598	4.25091e+02	4.59800e+03	8.35586e-03	4.23167e+02
4635	4.28028e+02	4.63500e+03	7.84476e-03	4.26250e+02
4672	4.30949e+02	4.67200e+03	7.78552e-03	4.29333e+02
4709	4.33928e+02	4.70900e+03	7.25700e-03	4.32417e+02
4746	4.36570e+02	4.74600e+03	6.97313e-03	4.35500e+02
4783	4.39450e+02	4.78300e+03	6.77575e-03	4.38583e+02
4820	4.42443e+02	4.82000e+03	5.98064e-03	4.41667e+02
4857	4.45450e+02	4.85700e+03	6.68288e-03	4.44750e+02
4894	4.48473e+02	4.89400e+03	6.23022e-03	4.47833e+02
4931	4.51488e+02	4.93100e+03	6.02569e-03	4.50917e+02
4968	4.54517e+02	4.96800e+03	6.06436e-03	4.54000e+02
5005	4.57547e+02	5.00500e+03	6.02266e-03	4.57083e+02
5042	4.60552e+02	5.04200e+03	5.91303e-03	4.60167e+02
5079	4.63566e+02	5.07900e+03	5.77407e-03	4.63250e+02
5116	4.66590e+02	5.11600e+03	5.87246e-03	4.66333e+02
5153	4.69636e+02	5.15300e+03	5.67661e-03	4.69417e+02
5190	4.72666e+02	5.19000e+03	5.45016e-03	4.72500e+02
5227	4.75710e+02	5.22700e+03	5.59672e-03	4.75583e+02
5264	4.78739e+02	5.26400e+03	5.42764e-03	4.78667e+02
5301	4.81781e+02	5.30100e+03	5.40071e-03	4.81750e+02
5338	4.84811e+02	5.33800e+03	5.45693e-03	4.84833e+02
5375	4.87847e+02	5.37500e+03	5.24577e-03	4.87917e+02
5412	4.90870e+02	5.41200e+03	5.19362e-03	4.91000e+02
5449	4.93910e+02	5.44900e+03	5.14326e-03	4.94083e+02
5486	4.96955e+02	5.48600e+03	5.16295e-03	4.97167e+02
5523	4.99991e+02	5.52300e+03	4.99775e-03	5.00250e+02
5560	5.03044e+02	5.56000e+03	5.06838e-03	5.03333e+02
5597	5.06089e+02	5.59700e+03	4.81979e-03	5.06417e+02
5634	5.09130e+02	5.63400e+03	4.88998e-03	5.09500e+02
5671	5.12203e+02	5.67100e+03	4.93223e-03	5.12583e+02
5708	5.15262e+02	5.70800e+03	4.90516e-03	5.15667e+02
5745	5.18319e+02	5.74500e+03	4.74036e-03	5.18750e+02
5782	5.21404e+02	5.78200e+03	4.71663e-03	5.21833e+02
5819	5.24504e+02	5.81900e+03	4.59199e-03	5.24917e+02
5856	5.27580e+02	5.85600e+03	4.53826e-03	5.28000e+02
5893	5.30663e+02	5.89300e+03	4.71258e-03	5.31083e+02
5930	5.33769e+02	5.93000e+03	4.62380e-03	5.34167e+02
5967	5.36841e+02	5.96700e+03	4.52284e-03	5.37250e+02
6004	5.39912e+02	6.00400e+03	4.51851e-03	5.40333e+02
6041	5.42976e+02	6.04100e+03	4.42830e-03	5.43417e+02
6078	5.46008e+02	6.07800e+03	4.34886e-03	5.46500e+02
6115	5.49049e+02	6.11500e+03	4.26249e-03	5.49583e+02
6152	5.52104e+02	6.15200e+03	4.01744e-03	5.52667e+02
6189	5.55160e+02	6.18900e+03	3.96556e-03	5.55750e+02
6226	5.58240e+02	6.22600e+03	3.92958e-03	5.58833e+02
6263	5.61284e+02	6.26300e+03	3.67275e-03	5.61917e+02
6300	5.64338e+02	6.30000e+03	3.65880e-03	5.65000e+02
6337	5.67382e+02	6.33700e+03	3.71191e-03	5.68083e+02
6374	5.70437e+02	6.37400e+03	3.70680e-03	5.71167e+02
6411	5.73492e+02	6.41100e+03	3.62153e-03	5.74250e+02
6448	5.76503e+02	6.44800e+03	3.66871e-03	5.77333e+02
6485	5.79515e+02	6.48500e+03	3.68859e-03	5.80417e+02
6522	5.82551e+02	6.52200e+03	3.71151e-03	5.83500e+02
6559	5.85624e+02	6.55900e+03	3.82210e-03	5.86583e+02
6596	5.88689e+02	6.59600e+03	3.57183e-03	5.89667e+02
6633	5.91741e+02	6.63300e+03	3.57556e-03	5.92750e+02
6670	5.94827e+02	6.67000e+03	3.54921e-03	5.95833e+02
6707	5.97890e+02	6.70700e+03	3.42508e-03	5.98917e+02
6744	6.00969e+02	6.74400e+03	3.37227e-03	6.02000e+02
6781	6.04063e+02	6.78100e+03	3.26131e-03	6.05083e+02
6818	6.07141e+02	6.81800e+03	3.20035e-03	6.08167e+02
6855	6.10220e+02	6.85500e+03	3.21544e-03	6.11250e+02
6892	6.13302e+02	6.89200e+03	3.10741e-03	6.14333e+02
6929	6.16375e+02	6.92900e+03	2.94112e-03	6.17417e+02
6966	6.19427e+02	6.96600e+03	2.93250e-03	6.20500e+02
7003	6.22495e+02	7.00300e+03	3.00907e-03	6.23583e+02
7040	6.25584e+02	7.04000e+03	2.78988e-03	6.26667e+02
7077	6.28669e+02	7.07700e+03	2.83537e-03	6.29750e+02
7114	6.31753e+02	7.11400e+03	2.71151e-03	6.32833e+02
7151	6.34842e+02	7.15100e+03	2.67507e-03	6.35917e+02
7188	6.37930e+02	7.18800e+03	2.65939e-03	6.39000e+02
7225	6.41018e+02	7.22500e+03	2.45535e-03	6.42083e+02
7262	6.44106e+02	7.26200e+03	2.46337e-03	6.45167e+02
7299	6.47193e+02	7.29900e+03	2.26252e-03	6.48250e+02
7336	6.50301e+02	7.33600e+03	2.37626e-03	6.51333e+02
7373	6.53395e+02	7.37300e+03	2.30232e-03	6.54417e+02
7410	6.56492e+02	7.41000e+03	2.15251e-03	6.57500e+02
7447	6.59573e+02	7.44700e+03	2.21868e-03	6.60583e+02
7484	6.62666e+02	7.48400e+03	2.20022e-03	6.63667e+02
7521	6.65765e+02	7.52100e+03	2.33740e-03	6.66750e+02
7558	6.68860e+02	7.55800e+03	2.42861e-03	6.69833e+02
7595	6.71956e+02	7.59500e+03	2.29525e-03	6.72917e+02
7632	6.75062e+02	7.63200e+03	2.15189e-03	6.76000e+02
7669	6.78158e+02	7.66900e+03	2.12269e-03	6.79083e+02
7706	6.81241e+02	7.70600e+03	2.08995e-03	6.82167e+02
7743	6.84326e+02	7.74300e+03	1.98793e-03	6.85250e+02
7780	6.87416e+02	7.78000e+03	2.05899e-03	6.88333e+02
7817	6.90505e+02	7.81700e+03	1.93771e-03	6.91417e+02
7854	6.93584e+02	7.85400e+03	1.96307e-03	6.94500e+02
7891	6.96663e+02	7.89100e+03	1.86900e-03	6.97583e+02
7920	6.98142e+02	7.92000e+03	1.73393e-03	7.00000e+02

File: tga_dynamic_n2_dyn5_piece_3mg_r3.txt
index	ts	t	weight	tr
[#]	[°C]	[s]	[mg]	[°C]
1083	1.31043e+02	1.08300e+03	3.02856e+00	1.30250e+02
1120	1.34148e+02	1.12000e+03	3.02831e+00	1.33333e+02
1157	1.37261e+02	1.15700e+03	3.02790e+00	1.36417e+02
1194	1.40390e+02	1.19400e+03	3.02775e+00	1.39500e+02
1231	1.43518e+02	1.23100e+03	3.02724e+00	1.42583e+02
1268	1.46640e+02	1.26800e+03	3.02695e+00	1.45667e+02
1305	1.49753e+02	1.30500e+03	3.02656e+00	1.48750e+02
1342	1.52871e+02	1.34200e+03	3.02622e+00	1.51833e+02
1379	1.55996e+02	1.37900e+03	3.02591e+00	1.54917e+02
1416	1.59108e+02	1.41600e+03	3.02567e+00	1.58000e+02
1453	1.62216e+02	1.45300e+03	3.02521e+00	1.61083e+02
1490	1.65323e+02	1.49000e+03	3.02465e+00	1.64167e+02
1527	1.68433e+02	1.52700e+03	3.02365e+00	1.67250e+02
1564	1.71557e+02	1.56400e+03	3.02218e+00	1.70333e+02
1601	1.74662e+02	1.60100e+03	3.02033e+00	1.73417e+02
1638	1.77793e+02	1.63800e+03	3.01803e+00	1.76500e+02
1675	1.80902e+02	1.67500e+03	3.01561e+00	1.79583e+02
1712	1.84005e+02	1.71200e+03	3.01263e+00	1.82667e+02
1749	1.87108e+02	1.74900e+03	3.00931e+00	1.85750e+02
1786	1.90205e+02	1.78600e+03	3.00577e+00	1.88833e+02
1823	1.93307e+02	1.82300e+03	3.00255e+00	1.91917e+02
1860	1.96404e+02	1.86000e+03	2.99904e+00	1.95000e+02
1897	1.99513e+02	1.89700e+03	2.99522e+00	1.98083e+02
1934	2.02635e+02	1.93400e+03	2.99164e+00	2.01167e+02
1971	2.05708e+02	1.97100e+03	2.98803e+00	2.04250e+02
2008	2.08808e+02	2.00800e+03	2.98416e+00	2.07333e+02
2045	2.11920e+02	2.04500e+03	2.98036e+00	2.10417e+02
2082	2.15002e+02	2.08200e+03	2.97633e+00	2.13500e+02
2119	2.18092e+02	2.11900e+03	2.97222e+00	2.16583e+02
2156	2.21187e+02	2.15600e+03	2.96825e+00	2.19667e+02
2193	2.24263e+02	2.19300e+03	2.96391e+00	2.22750e+02
2230	2.27342e+02	2.23000e+03	2.95972e+00	2.25833e+02
2267	2.30384e+02	2.26700e+03	2.95540e+00	2.28917e+02
2304	2.33497e+02	2.30400e+03	2.95098e+00	2.32000e+02
2341	2.36572e+02	2.34100e+03	2.94645e+00	2.35083e+02
2378	2.39655e+02	2.37800e+03	2.94222e+00	2.38167e+02
2415	2.42720e+02	2.41500e+03	2.93786e+00	2.41250e+02
2452	2.45813e+02	2.45200e+03	2.93333e+00	2.44333e+02
2489	2.48879e+02	2.48900e+03	2.92868e+00	2.47417e+02
2526	2.51951e+02	2.52600e+03	2.92433e+00	2.50500e+02
2563	2.55100e+02	2.56300e+03	2.91959e+00	2.53583e+02
2600	2.58188e+02	2.60000e+03	2.91464e+00	2.56667e+02
2637	2.61343e+02	2.63700e+03	2.90963e+00	2.59750e+02
2674	2.64503e+02	2.67400e+03	2.90446e+00	2.62833e+02
2711	2.67588e+02	2.71100e+03	2.89918e+00	2.65917e+02
2748	2.70579e+02	2.74800e+03	2.89311e+00	2.69000e+02
2785	2.73640e+02	2.78500e+03	2.88650e+00	2.72083e+02
2822	2.76720e+02	2.82200e+03	2.87924e+00	2.75167e+02
2859	2.79786e+02	2.85900e+03	2.87094e+00	2.78250e+02
2896	2.82847e+02	2.89600e+03	2.86190e+00	2.81333e+02
2933	2.85949e+02	2.93300e+03	2.85175e+00	2.84417e+02
2970	2.89106e+02	2.97000e+03	2.84059e+00	2.87500e+02
3007	2.92522e+02	3.00700e+03	2.82866e+00	2.90583e+02
3044	2.95605e+02	3.04400e+03	2.81564e+00	2.93667e+02
3081	2.98759e+02	3.08100e+03	2.80242e+00	2.96750e+02
3118	3.02036e+02	3.11800e+03	2.78870e+00	2.99833e+02
3155	3.05087e+02	3.15500e+03	2.77415e+00	3.02917e+02
3192	3.08188e+02	3.19200e+03	2.75953e+00	3.06000e+02
3229	3.11421e+02	3.22900e+03	2.74341e+00	3.09083e+02
3266	3.14614e+02	3.26600e+03	2.72596e+00	3.12167e+02
3303	3.17664e+02	3.30300e+03	2.70601e+00	3.15250e+02
3340	3.20648e+02	3.34000e+03	2.68282e+00	3.18333e+02
3377	3.23721e+02	3.37700e+03	2.65587e+00	3.21417e+02
3414	3.26843e+02	3.41400e+03	2.62389e+00	3.24500e+02
3451	3.29912e+02	3.45100e+03	2.58496e+00	3.27583e+02
3488	3.33022e+02	3.48800e+03	2.53819e+00	3.30667e+02
3525	3.36065e+02	3.52500e+03	2.47686e+00	3.33750e+02
3562	3.39146e+02	3.56200e+03	2.40528e+00	3.36833e+02
3599	3.42211e+02	3.59900e+03	2.31759e+00	3.39917e+02
3636	3.45272e+02	3.63600e+03	2.21228e+00	3.43000e+02
3673	3.48331e+02	3.67300e+03	2.09046e+00	3.46083e+02
3710	3.51417e+02	3.71000e+03	1.94968e+00	3.49167e+02
3747	3.54501e+02	3.74700e+03	1.79316e+00	3.52250e+02
3784	3.57626e+02	3.78400e+03	1.62311e+00	3.55333e+02
3821	3.60657e+02	3.82100e+03	1.44537e+00	3.58417e+02
3858	3.63649e+02	3.85800e+03	1.27430e+00	3.61500e+02
3895	3.66746e+02	3.89500e+03	1.10396e+00	3.64583e+02
3932	3.69915e+02	3.93200e+03	9.35165e-01	3.67667e+02
3969	3.72890e+02	3.96900e+03	7.64281e-01	3.70750e+02
4006	3.75960e+02	4.00600e+03	6.06385e-01	3.73833e+02
4043	3.78929e+02	4.04300e+03	4.72200e-01	3.76917e+02
4080	3.81975e+02	4.08000e+03	3.65192e-01	3.80000e+02
4117	3.85007e+02	4.11700e+03	2.84151e-01	3.83083e+02
4154	3.88159e+02	4.15400e+03	2.23136e-01	3.86167e+02
4191	3.91585e+02	4.19100e+03	1.78328e-01	3.89250e+02
4228	3.94604e+02	4.22800e+03	1.44945e-01	3.92333e+02
4265	3.97904e+02	4.26500e+03	1.21186e-01	3.95417e+02
4302	4.01063e+02	4.30200e+03	1.02767e-01	3.98500e+02
4339	4.04094e+02	4.33900e+03	8.81707e-02	4.01583e+02
4376	4.07343e+02	4.37600e+03	7.78165e-02	4.04667e+02
4413	4.10858e+02	4.41300e+03	6.91198e-02	4.07750e+02
4450	4.13998e+02	4.45000e+03	6.18291e-02	4.10833e+02
4487	4.16913e+02	4.48700e+03	5.56101e-02	4.13917e+02
4524	4.19562e+02	4.52400e+03	5.09275e-02	4.17000e+02
4561	4.22458e+02	4.56100e+03	4.75814e-02	4.20083e+02
4598	4.25382e+02	4.59800e+03	4.60311e-02	4.23167e+02
4635	4.28339e+02	4.63500e+03	4.53624e-02	4.26250e+02
4672	4.31307e+02	4.67200e+03	4.55842e-02	4.29333e+02
4709	4.34268e+02	4.70900e+03	4.45043e-02	4.32417e+02
4746	4.37313e+02	4.74600e+03	4.42344e-02	4.35500e+02
4783	4.40274e+02	4.78300e+03	4.40795e-02	4.38583e+02
4820	4.43263e+02	4.82000e+03	4.32521e-02	4.41667e+02
4857	4.45651e+02	4.85700e+03	4.36764e-02	4.44750e+02
4894	4.48579e+02	4.89400e+03	4.33464e-02	4.47833e+02
4931	4.51556e+02	4.93100e+03	4.32487e-02	4.50917e+02
4968	4.54552e+02	4.96800e+03	4.30831e-02	4.54000e+02
5005	4.57574e+02	5.00500e+03	4.28645e-02	4.57083e+02
5042	4.60588e+02	5.04200e+03	4.28349e-02	4.60167e+02
5079	4.63608e+02	5.07900e+03	4.27374e-02	4.63250e+02
5116	4.66649e+02	5.11600e+03	4.28700e-02	4.66333e+02
5153	4.69688e+02	5.15300e+03	4.23426e-02	4.69417e+02
5190	4.72714e+02	5.19000e+03	4.22953e-02	4.72500e+02
5227	4.75766e+02	5.22700e+03	4.28833e-02	4.75583e+02
5264	4.78810e+02	5.26400e+03	4.23348e-02	4.78667e+02
5301	4.81858e+02	5.30100e+03	4.20850e-02	4.81750e+02
5338	4.84911e+02	5.33800e+03	4.23763e-02	4.84833e+02
5375	4.87966e+02	5.37500e+03	4.20969e-02	4.87917e+02
5412	4.91023e+02	5.41200e+03	4.21064e-02	4.91000e+02
5449	4.94066e+02	5.44900e+03	4.20991e-02	4.94083e+02
5486	4.97109e+02	5.48600e+03	4.18008e-02	4.97167e+02
5523	5.00145e+02	5.52300e+03	4.21246e-02	5.00250e+02
5560	5.03200e+02	5.56000e+03	4.18425e-02	5.03333e+02
5597	5.06243e+02	5.59700e+03	4.21072e-02	5.06417e+02
5634	5.09253e+02	5.63400e+03	4.18462e-02	5.09500e+02
5671	5.12293e+02	5.67100e+03	4.22341e-02	5.12583e+02
5708	5.15319e+02	5.70800e+03	4.17484e-02	5.15667e+02
5745	5.18364e+02	5.74500e+03	4.17820e-02	5.18750e+02
5782	5.21411e+02	5.78200e+03	4.15803e-02	5.21833e+02
5819	5.24465e+02	5.81900e+03	4.14173e-02	5.24917e+02
5856	5.27485e+02	5.85600e+03	4.12669e-02	5.28000e+02
5893	5.30503e+02	5.89300e+03	4.13888e-02	5.31083e+02
5930	5.33569e+02	5.93000e+03	4.13356e-02	5.34167e+02
5967	5.36629e+02	5.96700e+03	4.11781e-02	5.37250e+02
6004	5.39687e+02	6.00400e+03	4.11226e-02	5.40333e+02
6041	5.42748e+02	6.04100e+03	4.09239e-02	5.43417e+02
6078	5.45821e+02	6.07800e+03	4.10060e-02	5.46500e+02
6115	5.48876e+02	6.11500e+03	4.10971e-02	5.49583e+02
6152	5.51927e+02	6.15200e+03	4.09834e-02	5.52667e+02
6189	5.54973e+02	6.18900e+03	4.11085e-02	5.55750e+02
6226	5.58003e+02	6.22600e+03	4.09626e-02	5.58833e+02
6263	5.61036e+02	6.26300e+03	4.08530e-02	5.61917e+02
6300	5.64115e+02	6.30000e+03	4.06392e-02	5.65000e+02
6337	5.67190e+02	6.33700e+03	4.06014e-02	5.68083e+02
6374	5.70266e+02	6.37400e+03	4.06520e-02	5.71167e+02
6411	5.73350e+02	6.41100e+03	4.05760e-02	5.74250e+02
6448	5.76500e+02	6.44800e+03	4.04719e-02	5.77333e+02
6485	5.79598e+02	6.48500e+03	4.04874e-02	5.80417e+02
6522	5.82680e+02	6.52200e+03	4.04006e-02	5.83500e+02
6559	5.85794e+02	6.55900e+03	4.04344e-02	5.86583e+02
6596	5.88862e+02	6.59600e+03	4.03967e-02	5.89667e+02
6633	5.91911e+02	6.63300e+03	4.03835e-02	5.92750e+02
6670	5.94977e+02	6.67000e+03	4.01354e-02	5.95833e+02
6707	5.98026e+02	6.70700e+03	4.01748e-02	5.98917e+02
6744	6.01070e+02	6.74400e+03	4.00814e-02	6.02000e+02
6781	6.04100e+02	6.78100e+03	3.99814e-02	6.05083e+02
6818	6.07175e+02	6.81800e+03	3.99116e-02	6.08167e+02
6855	6.10267e+02	6.85500e+03	4.00317e-02	6.11250e+02
6892	6.13333e+02	6.89200e+03	3.97741e-02	6.14333e+02
6929	6.16415e+02	6.92900e+03	4.03154e-02	6.17417e+02
6966	6.19479e+02	6.96600e+03	3.95604e-02	6.20500e+02
7003	6.22542e+02	7.00300e+03	3.95412e-02	6.23583e+02
7040	6.25605e+02	7.04000e+03	3.93944e-02	6.26667e+02
7077	6.28681e+02	7.07700e+03	3.95841e-02	6.29750e+02
7114	6.31732e+02	7.11400e+03	3.93417e-02	6.32833e+02
7151	6.34796e+02	7.15100e+03	3.94725e-02	6.35917e+02
7188	6.37875e+02	7.18800e+03	3.90754e-02	6.39000e+02
7225	6.40940e+02	7.22500e+03	3.90163e-02	6.42083e+02
7262	6.44004e+02	7.26200e+03	3.89279e-02	6.45167e+02
7299	6.47093e+02	7.29900e+03	3.90378e-02	6.48250e+02
7336	6.50156e+02	7.33600e+03	3.92198e-02	6.51333e+02
7373	6.53245e+02	7.37300e+03	3.88419e-02	6.54417e+02
7410	6.56310e+02	7.41000e+03	3.87768e-02	6.57500e+02
7447	6.59389e+02	7.44700e+03	3.84555e-02	6.60583e+02
7484	6.62464e+02	7.48400e+03	3.87012e-02	6.63667e+02
7521	6.65533e+02	7.52100e+03	3.87946e-02	6.66750e+02
7558	6.68614e+02	7.55800e+03	3.88000e-02	6.69833e+02
7595	6.71696e+02	7.59500e+03	3.88803e-02	6.72917e+02
7632	6.74783e+02	7.63200e+03	3.85500e-02	6.76000e+02
7669	6.77869e+02	7.66900e+03	3.86224e-02	6.79083e+02
7706	6.80936e+02	7.70600e+03	3.84134e-02	6.82167e+02
7743	6.84029e+02	7.74300e+03	3.81692e-02	6.85250e+02
7780	6.87113e+02	7.78000e+03	3.83037e-02	6.88333e+02
7817	6.90202e+02	7.81700e+03	3.85807e-02	6.91417e+02
7854	6.93282e+02	7.85400e+03	3.83335e-02	6.94500e+02
7891	6.96351e+02	7.89100e+03	3.81458e-02	6.97583e+02
7920	6.97806e+02	7.92000e+03	3.83185e-02	7.00000e+02