Folder: Pyrolysis_BESKID/Experiments/TUBS/tga_nonisotherm (part 29)

File: tga_dynamic_n2_dyn30_powder_3mg_r3.txt
index	ts	t	weight	tr
[#]	[°C]	[s]	[mg]	[°C]
683	1.31328e+02	6.83000e+02	2.95275e+00	1.31500e+02
689	1.34359e+02	6.89000e+02	2.95234e+00	1.34500e+02
695	1.37400e+02	6.95000e+02	2.95192e+00	1.37500e+02
701	1.40447e+02	7.01000e+02	2.95132e+00	1.40500e+02
707	1.43479e+02	7.07000e+02	2.95074e+00	1.43500e+02
713	1.46496e+02	7.13000e+02	2.95002e+00	1.46500e+02
719	1.49532e+02	7.19000e+02	2.94917e+00	1.49500e+02
725	1.52561e+02	7.25000e+02	2.94803e+00	1.52500e+02
731	1.55594e+02	7.31000e+02	2.94684e+00	1.55500e+02
737	1.58635e+02	7.37000e+02	2.94548e+00	1.58500e+02
743	1.61674e+02	7.43000e+02	2.94401e+00	1.61500e+02
749	1.64711e+02	7.49000e+02	2.94241e+00	1.64500e+02
755	1.67752e+02	7.55000e+02	2.94079e+00	1.67500e+02
761	1.70798e+02	7.61000e+02	2.93867e+00	1.70500e+02
767	1.73830e+02	7.67000e+02	2.93628e+00	1.73500e+02
773	1.76872e+02	7.73000e+02	2.93350e+00	1.76500e+02
779	1.79906e+02	7.79000e+02	2.93016e+00	1.79500e+02
785	1.82922e+02	7.85000e+02	2.92604e+00	1.82500e+02
791	1.85955e+02	7.91000e+02	2.91987e+00	1.85500e+02
797	1.88989e+02	7.97000e+02	2.91194e+00	1.88500e+02
803	1.92013e+02	8.03000e+02	2.90369e+00	1.91500e+02
809	1.95065e+02	8.09000e+02	2.89484e+00	1.94500e+02
815	1.98112e+02	8.15000e+02	2.88569e+00	1.97500e+02
821	2.01162e+02	8.21000e+02	2.87690e+00	2.00500e+02
827	2.04203e+02	8.27000e+02	2.86884e+00	2.03500e+02
833	2.07249e+02	8.33000e+02	2.86212e+00	2.06500e+02
839	2.10296e+02	8.39000e+02	2.85669e+00	2.09500e+02
845	2.13357e+02	8.45000e+02	2.85255e+00	2.12500e+02
851	2.16442e+02	8.51000e+02	2.84950e+00	2.15500e+02
857	2.19512e+02	8.57000e+02	2.84728e+00	2.18500e+02
863	2.22596e+02	8.63000e+02	2.84519e+00	2.21500e+02
869	2.25695e+02	8.69000e+02	2.84316e+00	2.24500e+02
875	2.28743e+02	8.75000e+02	2.84109e+00	2.27500e+02
881	2.31778e+02	8.81000e+02	2.83892e+00	2.30500e+02
887	2.34845e+02	8.87000e+02	2.83666e+00	2.33500e+02
893	2.37906e+02	8.93000e+02	2.83453e+00	2.36500e+02
899	2.40997e+02	8.99000e+02	2.83241e+00	2.39500e+02
905	2.44048e+02	9.05000e+02	2.83025e+00	2.42500e+02
911	2.47142e+02	9.11000e+02	2.82817e+00	2.45500e+02
917	2.50219e+02	9.17000e+02	2.82632e+00	2.48500e+02
923	2.53304e+02	9.23000e+02	2.82468e+00	2.51500e+02
929	2.56422e+02	9.29000e+02	2.82310e+00	2.54500e+02
935	2.59578e+02	9.35000e+02	2.82153e+00	2.57500e+02
941	2.62750e+02	9.41000e+02	2.82000e+00	2.60500e+02
947	2.65809e+02	9.47000e+02	2.81856e+00	2.63500e+02
953	2.68807e+02	9.53000e+02	2.81722e+00	2.66500e+02
959	2.71880e+02	9.59000e+02	2.81561e+00	2.69500e+02
965	2.74910e+02	9.65000e+02	2.81374e+00	2.72500e+02
971	2.77925e+02	9.71000e+02	2.81177e+00	2.75500e+02
977	2.80970e+02	9.77000e+02	2.80941e+00	2.78500e+02
983	2.84065e+02	9.83000e+02	2.80659e+00	2.81500e+02
989	2.87129e+02	9.89000e+02	2.80329e+00	2.84500e+02
995	2.90157e+02	9.95000e+02	2.79939e+00	2.87500e+02
1001	2.93228e+02	1.00100e+03	2.79455e+00	2.90500e+02
1007	2.96246e+02	1.00700e+03	2.78848e+00	2.93500e+02
1013	2.99214e+02	1.01300e+03	2.78122e+00	2.96500e+02
1019	3.02127e+02	1.01900e+03	2.77281e+00	2.99500e+02
1025	3.05059e+02	1.02500e+03	2.76310e+00	3.02500e+02
1031	3.07934e+02	1.03100e+03	2.75247e+00	3.05500e+02
1037	3.10715e+02	1.03700e+03	2.74082e+00	3.08500e+02
1043	3.13501e+02	1.04300e+03	2.72829e+00	3.11500e+02
1049	3.16251e+02	1.04900e+03	2.71481e+00	3.14500e+02
1055	3.19177e+02	1.05500e+03	2.70059e+00	3.17500e+02
1061	3.22166e+02	1.06100e+03	2.68524e+00	3.20500e+02
1067	3.25147e+02	1.06700e+03	2.66894e+00	3.23500e+02
1073	3.28148e+02	1.07300e+03	2.65236e+00	3.26500e+02
1079	3.31143e+02	1.07900e+03	2.63515e+00	3.29500e+02
1085	3.34141e+02	1.08500e+03	2.61561e+00	3.32500e+02
1091	3.37134e+02	1.09100e+03	2.59275e+00	3.35500e+02
1097	3.40100e+02	1.09700e+03	2.56491e+00	3.38500e+02
1103	3.43082e+02	1.10300e+03	2.53177e+00	3.41500e+02
1109	3.46041e+02	1.10900e+03	2.49158e+00	3.44500e+02
1115	3.49019e+02	1.11500e+03	2.44422e+00	3.47500e+02
1121	3.51986e+02	1.12100e+03	2.38774e+00	3.50500e+02
1127	3.54924e+02	1.12700e+03	2.32256e+00	3.53500e+02
1133	3.57887e+02	1.13300e+03	2.24724e+00	3.56500e+02
1139	3.60852e+02	1.13900e+03	2.16282e+00	3.59500e+02
1145	3.63800e+02	1.14500e+03	2.06840e+00	3.62500e+02
1151	3.66742e+02	1.15100e+03	1.96607e+00	3.65500e+02
1157	3.69661e+02	1.15700e+03	1.85547e+00	3.68500e+02
1163	3.72625e+02	1.16300e+03	1.73760e+00	3.71500e+02
1169	3.75737e+02	1.16900e+03	1.61227e+00	3.74500e+02
1175	3.78695e+02	1.17500e+03	1.48223e+00	3.77500e+02
1181	3.81696e+02	1.18100e+03	1.34798e+00	3.80500e+02
1187	3.84766e+02	1.18700e+03	1.20785e+00	3.83500e+02
1193	3.87791e+02	1.19300e+03	1.06672e+00	3.86500e+02
1199	3.90863e+02	1.19900e+03	9.29476e-01	3.89500e+02
1205	3.93904e+02	1.20500e+03	7.97750e-01	3.92500e+02
1211	3.96958e+02	1.21100e+03	6.72039e-01	3.95500e+02
1217	4.00018e+02	1.21700e+03	5.56426e-01	3.98500e+02
1223	4.03101e+02	1.22300e+03	4.53056e-01	4.01500e+02
1229	4.06165e+02	1.22900e+03	3.65159e-01	4.04500e+02
1235	4.09240e+02	1.23500e+03	2.90778e-01	4.07500e+02
1241	4.12294e+02	1.24100e+03	2.30773e-01	4.10500e+02
1247	4.15351e+02	1.24700e+03	1.81777e-01	4.13500e+02
1253	4.18416e+02	1.25300e+03	1.43686e-01	4.16500e+02
1259	4.21507e+02	1.25900e+03	1.13841e-01	4.19500e+02
1265	4.24536e+02	1.26500e+03	9.18894e-02	4.22500e+02
1271	4.27520e+02	1.27100e+03	7.55265e-02	4.25500e+02
1277	4.30552e+02	1.27700e+03	6.41133e-02	4.28500e+02
1283	4.33543e+02	1.28300e+03	5.57754e-02	4.31500e+02
1289	4.36508e+02	1.28900e+03	5.02255e-02	4.34500e+02
1295	4.39452e+02	1.29500e+03	4.63454e-02	4.37500e+02
1301	4.42420e+02	1.30100e+03	4.36064e-02	4.40500e+02
1307	4.45380e+02	1.30700e+03	4.16862e-02	4.43500e+02
1313	4.48343e+02	1.31300e+03	4.05607e-02	4.46500e+02
1319	4.51301e+02	1.31900e+03	3.97771e-02	4.49500e+02
1325	4.54246e+02	1.32500e+03	3.91953e-02	4.52500e+02
1331	4.57202e+02	1.33100e+03	3.87770e-02	4.55500e+02
1337	4.60160e+02	1.33700e+03	3.85874e-02	4.58500e+02
1343	4.63085e+02	1.34300e+03	3.84858e-02	4.61500e+02
1349	4.66036e+02	1.34900e+03	3.83469e-02	4.64500e+02
1355	4.68987e+02	1.35500e+03	3.81683e-02	4.67500e+02
1361	4.71937e+02	1.36100e+03	3.79049e-02	4.70500e+02
1367	4.74881e+02	1.36700e+03	3.78679e-02	4.73500e+02
1373	4.77818e+02	1.37300e+03	3.78781e-02	4.76500e+02
1379	4.80757e+02	1.37900e+03	3.75502e-02	4.79500e+02
1385	4.83703e+02	1.38500e+03	3.74230e-02	4.82500e+02
1391	4.86626e+02	1.39100e+03	3.72616e-02	4.85500e+02
1397	4.89555e+02	1.39700e+03	3.72320e-02	4.88500e+02
1403	4.92492e+02	1.40300e+03	3.71121e-02	4.91500e+02
1409	4.95433e+02	1.40900e+03	3.67893e-02	4.94500e+02
1415	4.98342e+02	1.41500e+03	3.65885e-02	4.97500e+02
1421	5.01280e+02	1.42100e+03	3.64447e-02	5.00500e+02
1427	5.04204e+02	1.42700e+03	3.62634e-02	5.03500e+02
1433	5.07125e+02	1.43300e+03	3.61543e-02	5.06500e+02
1439	5.10067e+02	1.43900e+03	3.61544e-02	5.09500e+02
1445	5.13006e+02	1.44500e+03	3.59094e-02	5.12500e+02
1451	5.15954e+02	1.45100e+03	3.53952e-02	5.15500e+02
1457	5.18894e+02	1.45700e+03	3.54213e-02	5.18500e+02
1463	5.21848e+02	1.46300e+03	3.56377e-02	5.21500e+02
1469	5.24771e+02	1.46900e+03	3.54938e-02	5.24500e+02
1475	5.27728e+02	1.47500e+03	3.54010e-02	5.27500e+02
1481	5.30677e+02	1.48100e+03	3.53409e-02	5.30500e+02
1487	5.33622e+02	1.48700e+03	3.52449e-02	5.33500e+02
1493	5.36568e+02	1.49300e+03	3.51394e-02	5.36500e+02
1499	5.39502e+02	1.49900e+03	3.49062e-02	5.39500e+02
1505	5.42452e+02	1.50500e+03	3.47474e-02	5.42500e+02
1511	5.45416e+02	1.51100e+03	3.45617e-02	5.45500e+02
1517	5.48369e+02	1.51700e+03	3.47593e-02	5.48500e+02
1523	5.51322e+02	1.52300e+03	3.43642e-02	5.51500e+02
1529	5.54277e+02	1.52900e+03	3.43703e-02	5.54500e+02
1535	5.57269e+02	1.53500e+03	3.41039e-02	5.57500e+02
1541	5.60260e+02	1.54100e+03	3.41558e-02	5.60500e+02
1547	5.63281e+02	1.54700e+03	3.42699e-02	5.63500e+02
1553	5.66270e+02	1.55300e+03	3.42297e-02	5.66500e+02
1559	5.69266e+02	1.55900e+03	3.40838e-02	5.69500e+02
1565	5.72268e+02	1.56500e+03	3.38386e-02	5.72500e+02
1571	5.75276e+02	1.57100e+03	3.37546e-02	5.75500e+02
1577	5.78317e+02	1.57700e+03	3.35404e-02	5.78500e+02
1583	5.81307e+02	1.58300e+03	3.36818e-02	5.81500e+02
1589	5.84268e+02	1.58900e+03	3.35484e-02	5.84500e+02
1595	5.87217e+02	1.59500e+03	3.37972e-02	5.87500e+02
1601	5.90187e+02	1.60100e+03	3.35260e-02	5.90500e+02
1607	5.93208e+02	1.60700e+03	3.35054e-02	5.93500e+02
1613	5.96220e+02	1.61300e+03	3.35149e-02	5.96500e+02
1619	5.99212e+02	1.61900e+03	3.35609e-02	5.99500e+02
1625	6.02222e+02	1.62500e+03	3.33132e-02	6.02500e+02
1631	6.05224e+02	1.63100e+03	3.32481e-02	6.05500e+02
1637	6.08341e+02	1.63700e+03	3.33009e-02	6.08500e+02
1643	6.11429e+02	1.64300e+03	3.32801e-02	6.11500e+02
1649	6.14426e+02	1.64900e+03	3.33278e-02	6.14500e+02
1655	6.17424e+02	1.65500e+03	3.33741e-02	6.17500e+02
1661	6.20433e+02	1.66100e+03	3.31684e-02	6.20500e+02
1667	6.23386e+02	1.66700e+03	3.32902e-02	6.23500e+02
1673	6.26352e+02	1.67300e+03	3.32846e-02	6.26500e+02
1679	6.29325e+02	1.67900e+03	3.31934e-02	6.29500e+02
1685	6.32293e+02	1.68500e+03	3.31264e-02	6.32500e+02
1691	6.35290e+02	1.69100e+03	3.31268e-02	6.35500e+02
1697	6.38254e+02	1.69700e+03	3.33488e-02	6.38500e+02
1703	6.41228e+02	1.70300e+03	3.33145e-02	6.41500e+02
1709	6.44190e+02	1.70900e+03	3.31172e-02	6.44500e+02
1715	6.47166e+02	1.71500e+03	3.30406e-02	6.47500e+02
1721	6.50133e+02	1.72100e+03	3.28789e-02	6.50500e+02
1727	6.53132e+02	1.72700e+03	3.28190e-02	6.53500e+02
1733	6.56143e+02	1.73300e+03	3.32988e-02	6.56500e+02
1739	6.59160e+02	1.73900e+03	3.33740e-02	6.59500e+02
1745	6.62176e+02	1.74500e+03	3.30302e-02	6.62500e+02
1751	6.65189e+02	1.75100e+03	3.28065e-02	6.65500e+02
1757	6.68235e+02	1.75700e+03	3.29510e-02	6.68500e+02
1763	6.71292e+02	1.76300e+03	3.30245e-02	6.71500e+02
1769	6.74325e+02	1.76900e+03	3.29124e-02	6.74500e+02
1775	6.77369e+02	1.77500e+03	3.27631e-02	6.77500e+02
1781	6.80385e+02	1.78100e+03	3.27535e-02	6.80500e+02
1787	6.83349e+02	1.78700e+03	3.25181e-02	6.83500e+02
1793	6.86366e+02	1.79300e+03	3.25742e-02	6.86500e+02
1799	6.88193e+02	1.79900e+03	3.30647e-02	6.89500e+02
1805	6.90186e+02	1.80500e+03	3.30950e-02	6.92500e+02
1811	6.91833e+02	1.81100e+03	3.28970e-02	6.95500e+02
1817	6.93209e+02	1.81700e+03	3.27913e-02	6.98500e+02
1820	6.93804e+02	1.82000e+03	3.28128e-02	7.00000e+02

File: tga_dynamic_n2_dyn30_powder_6mg_r1.txt
index	ts	t	weight	tr
[#]	[°C]	[s]	[mg]	[°C]
683	1.31086e+02	6.83000e+02	6.00416e+00	1.31500e+02
689	1.34112e+02	6.89000e+02	6.00386e+00	1.34500e+02
695	1.37150e+02	6.95000e+02	6.00338e+00	1.37500e+02
701	1.40199e+02	7.01000e+02	6.00250e+00	1.40500e+02
707	1.43241e+02	7.07000e+02	6.00144e+00	1.43500e+02
713	1.46267e+02	7.13000e+02	6.00024e+00	1.46500e+02
719	1.49318e+02	7.19000e+02	5.99870e+00	1.49500e+02
725	1.52361e+02	7.25000e+02	5.99668e+00	1.52500e+02
731	1.55403e+02	7.31000e+02	5.99445e+00	1.55500e+02
737	1.58436e+02	7.37000e+02	5.99201e+00	1.58500e+02
743	1.61505e+02	7.43000e+02	5.98920e+00	1.61500e+02
749	1.64539e+02	7.49000e+02	5.98624e+00	1.64500e+02
755	1.67592e+02	7.55000e+02	5.98305e+00	1.67500e+02
761	1.70644e+02	7.61000e+02	5.97930e+00	1.70500e+02
767	1.73690e+02	7.67000e+02	5.97489e+00	1.73500e+02
773	1.76756e+02	7.73000e+02	5.96997e+00	1.76500e+02
779	1.79811e+02	7.79000e+02	5.96377e+00	1.79500e+02
785	1.82873e+02	7.85000e+02	5.95559e+00	1.82500e+02
791	1.85945e+02	7.91000e+02	5.94531e+00	1.85500e+02
797	1.89006e+02	7.97000e+02	5.93239e+00	1.88500e+02
803	1.92055e+02	8.03000e+02	5.91698e+00	1.91500e+02
809	1.95140e+02	8.09000e+02	5.89901e+00	1.94500e+02
815	1.98208e+02	8.15000e+02	5.88072e+00	1.97500e+02
821	2.01284e+02	8.21000e+02	5.86233e+00	2.00500e+02
827	2.04337e+02	8.27000e+02	5.84477e+00	2.03500e+02
833	2.07423e+02	8.33000e+02	5.82962e+00	2.06500e+02
839	2.10500e+02	8.39000e+02	5.81717e+00	2.09500e+02
845	2.13590e+02	8.45000e+02	5.80764e+00	2.12500e+02
851	2.16677e+02	8.51000e+02	5.80054e+00	2.15500e+02
857	2.19776e+02	8.57000e+02	5.79522e+00	2.18500e+02
863	2.22863e+02	8.63000e+02	5.79052e+00	2.21500e+02
869	2.25982e+02	8.69000e+02	5.78638e+00	2.24500e+02
875	2.29071e+02	8.75000e+02	5.78239e+00	2.27500e+02
881	2.32193e+02	8.81000e+02	5.77797e+00	2.30500e+02
887	2.35284e+02	8.87000e+02	5.77333e+00	2.33500e+02
893	2.38404e+02	8.93000e+02	5.76890e+00	2.36500e+02
899	2.41515e+02	8.99000e+02	5.76485e+00	2.39500e+02
905	2.44606e+02	9.05000e+02	5.76067e+00	2.42500e+02
911	2.47674e+02	9.11000e+02	5.75653e+00	2.45500e+02
917	2.50763e+02	9.17000e+02	5.75268e+00	2.48500e+02
923	2.53855e+02	9.23000e+02	5.74929e+00	2.51500e+02
929	2.56942e+02	9.29000e+02	5.74601e+00	2.54500e+02
935	2.60026e+02	9.35000e+02	5.74287e+00	2.57500e+02
941	2.63115e+02	9.41000e+02	5.73984e+00	2.60500e+02
947	2.66263e+02	9.47000e+02	5.73685e+00	2.63500e+02
953	2.69435e+02	9.53000e+02	5.73379e+00	2.66500e+02
959	2.72532e+02	9.59000e+02	5.73053e+00	2.69500e+02
965	2.75624e+02	9.65000e+02	5.72689e+00	2.72500e+02
971	2.78674e+02	9.71000e+02	5.72292e+00	2.75500e+02
977	2.81705e+02	9.77000e+02	5.71806e+00	2.78500e+02
983	2.84732e+02	9.83000e+02	5.71236e+00	2.81500e+02
989	2.87820e+02	9.89000e+02	5.70556e+00	2.84500e+02
995	2.90838e+02	9.95000e+02	5.69756e+00	2.87500e+02
1001	2.93838e+02	1.00100e+03	5.68779e+00	2.90500e+02
1007	2.96907e+02	1.00700e+03	5.67586e+00	2.93500e+02
1013	2.99864e+02	1.01300e+03	5.66140e+00	2.96500e+02
1019	3.02853e+02	1.01900e+03	5.64479e+00	2.99500e+02
1025	3.05826e+02	1.02500e+03	5.62568e+00	3.02500e+02
1031	3.08785e+02	1.03100e+03	5.60458e+00	3.05500e+02
1037	3.11775e+02	1.03700e+03	5.58099e+00	3.08500e+02
1043	3.14706e+02	1.04300e+03	5.55583e+00	3.11500e+02
1049	3.17414e+02	1.04900e+03	5.52909e+00	3.14500e+02
1055	3.20109e+02	1.05500e+03	5.50130e+00	3.17500e+02
1061	3.22919e+02	1.06100e+03	5.47187e+00	3.20500e+02
1067	3.25859e+02	1.06700e+03	5.44086e+00	3.23500e+02
1073	3.28843e+02	1.07300e+03	5.40890e+00	3.26500e+02
1079	3.31842e+02	1.07900e+03	5.37533e+00	3.29500e+02
1085	3.34837e+02	1.08500e+03	5.33727e+00	3.32500e+02
1091	3.37840e+02	1.09100e+03	5.29276e+00	3.35500e+02
1097	3.40862e+02	1.09700e+03	5.23919e+00	3.38500e+02
1103	3.43982e+02	1.10300e+03	5.17564e+00	3.41500e+02
1109	3.46907e+02	1.10900e+03	5.09851e+00	3.44500e+02
1115	3.49853e+02	1.11500e+03	5.00837e+00	3.47500e+02
1121	3.52659e+02	1.12100e+03	4.90053e+00	3.50500e+02
1127	3.55522e+02	1.12700e+03	4.77691e+00	3.53500e+02
1133	3.58459e+02	1.13300e+03	4.63449e+00	3.56500e+02
1139	3.61417e+02	1.13900e+03	4.47463e+00	3.59500e+02
1145	3.64316e+02	1.14500e+03	4.29555e+00	3.62500e+02
1151	3.67163e+02	1.15100e+03	4.10066e+00	3.65500e+02
1157	3.70007e+02	1.15700e+03	3.88893e+00	3.68500e+02
1163	3.72843e+02	1.16300e+03	3.66444e+00	3.71500e+02
1169	3.75740e+02	1.16900e+03	3.42598e+00	3.74500e+02
1175	3.78651e+02	1.17500e+03	3.17761e+00	3.77500e+02
1181	3.81632e+02	1.18100e+03	2.92005e+00	3.80500e+02
1187	3.84578e+02	1.18700e+03	2.65690e+00	3.83500e+02
1193	3.87506e+02	1.19300e+03	2.38744e+00	3.86500e+02
1199	3.90481e+02	1.19900e+03	2.11624e+00	3.89500e+02
1205	3.93434e+02	1.20500e+03	1.84848e+00	3.92500e+02
1211	3.96463e+02	1.21100e+03	1.58670e+00	3.95500e+02
1217	3.99569e+02	1.21700e+03	1.33457e+00	3.98500e+02
1223	4.02735e+02	1.22300e+03	1.09498e+00	4.01500e+02
1229	4.05919e+02	1.22900e+03	8.77088e-01	4.04500e+02
1235	4.09102e+02	1.23500e+03	6.86650e-01	4.07500e+02
1241	4.12388e+02	1.24100e+03	5.30772e-01	4.10500e+02
1247	4.15650e+02	1.24700e+03	4.05543e-01	4.13500e+02
1253	4.18695e+02	1.25300e+03	3.07208e-01	4.16500e+02
1259	4.21789e+02	1.25900e+03	2.29733e-01	4.19500e+02
1265	4.24803e+02	1.26500e+03	1.72730e-01	4.22500e+02
1271	4.27814e+02	1.27100e+03	1.30355e-01	4.25500e+02
1277	4.30855e+02	1.27700e+03	1.01334e-01	4.28500e+02
1283	4.33943e+02	1.28300e+03	8.04028e-02	4.31500e+02
1289	4.36776e+02	1.28900e+03	6.66384e-02	4.34500e+02
1295	4.39645e+02	1.29500e+03	5.69818e-02	4.37500e+02
1301	4.42621e+02	1.30100e+03	5.05512e-02	4.40500e+02
1307	4.45579e+02	1.30700e+03	4.61998e-02	4.43500e+02
1313	4.48588e+02	1.31300e+03	4.33894e-02	4.46500e+02
1319	4.51558e+02	1.31900e+03	4.14373e-02	4.49500e+02
1325	4.54520e+02	1.32500e+03	4.00895e-02	4.52500e+02
1331	4.57529e+02	1.33100e+03	3.91101e-02	4.55500e+02
1337	4.60478e+02	1.33700e+03	3.87471e-02	4.58500e+02
1343	4.63386e+02	1.34300e+03	3.86104e-02	4.61500e+02
1349	4.66244e+02	1.34900e+03	3.83350e-02	4.64500e+02
1355	4.69103e+02	1.35500e+03	3.79933e-02	4.67500e+02
1361	4.71998e+02	1.36100e+03	3.77799e-02	4.70500e+02
1367	4.74892e+02	1.36700e+03	3.76341e-02	4.73500e+02
1373	4.77788e+02	1.37300e+03	3.77284e-02	4.76500e+02
1379	4.80717e+02	1.37900e+03	3.75753e-02	4.79500e+02
1385	4.83617e+02	1.38500e+03	3.74925e-02	4.82500e+02
1391	4.86544e+02	1.39100e+03	3.73741e-02	4.85500e+02
1397	4.89464e+02	1.39700e+03	3.73485e-02	4.88500e+02
1403	4.92389e+02	1.40300e+03	3.71648e-02	4.91500e+02
1409	4.95333e+02	1.40900e+03	3.68587e-02	4.94500e+02
1415	4.98262e+02	1.41500e+03	3.67720e-02	4.97500e+02
1421	5.01195e+02	1.42100e+03	3.66940e-02	5.00500e+02
1427	5.04120e+02	1.42700e+03	3.63772e-02	5.03500e+02
1433	5.07043e+02	1.43300e+03	3.63458e-02	5.06500e+02
1439	5.09977e+02	1.43900e+03	3.64537e-02	5.09500e+02
1445	5.12921e+02	1.44500e+03	3.61175e-02	5.12500e+02
1451	5.15854e+02	1.45100e+03	3.56303e-02	5.15500e+02
1457	5.18798e+02	1.45700e+03	3.57777e-02	5.18500e+02
1463	5.21744e+02	1.46300e+03	3.60819e-02	5.21500e+02
1469	5.24663e+02	1.46900e+03	3.59199e-02	5.24500e+02
1475	5.27629e+02	1.47500e+03	3.57228e-02	5.27500e+02
1481	5.30589e+02	1.48100e+03	3.55204e-02	5.30500e+02
1487	5.33537e+02	1.48700e+03	3.53619e-02	5.33500e+02
1493	5.36459e+02	1.49300e+03	3.53740e-02	5.36500e+02
1499	5.39396e+02	1.49900e+03	3.52423e-02	5.39500e+02
1505	5.42342e+02	1.50500e+03	3.49975e-02	5.42500e+02
1511	5.45271e+02	1.51100e+03	3.50552e-02	5.45500e+02
1517	5.48209e+02	1.51700e+03	3.50443e-02	5.48500e+02
1523	5.51143e+02	1.52300e+03	3.48826e-02	5.51500e+02
1529	5.54095e+02	1.52900e+03	3.46745e-02	5.54500e+02
1535	5.57053e+02	1.53500e+03	3.42278e-02	5.57500e+02
1541	5.60019e+02	1.54100e+03	3.45271e-02	5.60500e+02
1547	5.63010e+02	1.54700e+03	3.45773e-02	5.63500e+02
1553	5.65969e+02	1.55300e+03	3.44309e-02	5.66500e+02
1559	5.68952e+02	1.55900e+03	3.43182e-02	5.69500e+02
1565	5.71932e+02	1.56500e+03	3.42785e-02	5.72500e+02
1571	5.75043e+02	1.57100e+03	3.42406e-02	5.75500e+02
1577	5.81048e+02	1.57700e+03	3.40459e-02	5.78500e+02
1583	5.83746e+02	1.58300e+03	3.40548e-02	5.81500e+02
1589	5.86576e+02	1.58900e+03	3.40257e-02	5.84500e+02
1595	5.89459e+02	1.59500e+03	3.40678e-02	5.87500e+02
1601	5.92361e+02	1.60100e+03	3.40165e-02	5.90500e+02
1607	5.95268e+02	1.60700e+03	3.38581e-02	5.93500e+02
1613	5.98117e+02	1.61300e+03	3.38229e-02	5.96500e+02
1619	6.01022e+02	1.61900e+03	3.37717e-02	5.99500e+02
1625	6.03955e+02	1.62500e+03	3.35453e-02	6.02500e+02
1631	6.06837e+02	1.63100e+03	3.35077e-02	6.05500e+02
1637	6.09758e+02	1.63700e+03	3.33766e-02	6.08500e+02
1643	6.12694e+02	1.64300e+03	3.33113e-02	6.11500e+02
1649	6.15616e+02	1.64900e+03	3.32694e-02	6.14500e+02
1655	6.18558e+02	1.65500e+03	3.32343e-02	6.17500e+02
1661	6.21483e+02	1.66100e+03	3.32460e-02	6.20500e+02
1667	6.24403e+02	1.66700e+03	3.30853e-02	6.23500e+02
1673	6.27361e+02	1.67300e+03	3.29316e-02	6.26500e+02
1679	6.30315e+02	1.67900e+03	3.29685e-02	6.29500e+02
1685	6.33320e+02	1.68500e+03	3.30796e-02	6.32500e+02
1691	6.36293e+02	1.69100e+03	3.30604e-02	6.35500e+02
1697	6.39240e+02	1.69700e+03	3.29867e-02	6.38500e+02
1703	6.42206e+02	1.70300e+03	3.29327e-02	6.41500e+02
1709	6.45098e+02	1.70900e+03	3.28074e-02	6.44500e+02
1715	6.48116e+02	1.71500e+03	3.27061e-02	6.47500e+02
1721	6.51193e+02	1.72100e+03	3.25073e-02	6.50500e+02
1727	6.54224e+02	1.72700e+03	3.25464e-02	6.53500e+02
1733	6.57172e+02	1.73300e+03	3.31485e-02	6.56500e+02
1739	6.60156e+02	1.73900e+03	3.31104e-02	6.59500e+02
1745	6.63155e+02	1.74500e+03	3.27187e-02	6.62500e+02
1751	6.66129e+02	1.75100e+03	3.26021e-02	6.65500e+02
1757	6.69085e+02	1.75700e+03	3.27675e-02	6.68500e+02
1763	6.72030e+02	1.76300e+03	3.27648e-02	6.71500e+02
1769	6.75010e+02	1.76900e+03	3.27099e-02	6.74500e+02
1775	6.77995e+02	1.77500e+03	3.27634e-02	6.77500e+02
1781	6.80940e+02	1.78100e+03	3.26447e-02	6.80500e+02
1787	6.83888e+02	1.78700e+03	3.25234e-02	6.83500e+02
1793	6.86805e+02	1.79300e+03	3.24854e-02	6.86500e+02
1799	6.88627e+02	1.79900e+03	3.29385e-02	6.89500e+02
1805	6.90524e+02	1.80500e+03	3.29649e-02	6.92500e+02
1811	6.92101e+02	1.81100e+03	3.27799e-02	6.95500e+02
1817	6.93432e+02	1.81700e+03	3.28365e-02	6.98500e+02
1820	6.93998e+02	1.82000e+03	3.28272e-02	7.00000e+02