Folder: Pyrolysis_BESKID/Experiments/TUBS/tga_nonisotherm (part 13)

File: tga_dynamic_n2_dyn10_powder_2mg_r2.txt
index	ts	t	weight	tr
[#]	[°C]	[s]	[mg]	[°C]
843	1.30788e+02	8.43000e+02	2.03854e+00	1.30500e+02
862	1.33991e+02	8.62000e+02	2.03827e+00	1.33667e+02
881	1.37204e+02	8.81000e+02	2.03740e+00	1.36833e+02
900	1.40407e+02	9.00000e+02	2.03713e+00	1.40000e+02
919	1.43627e+02	9.19000e+02	2.03638e+00	1.43167e+02
938	1.46845e+02	9.38000e+02	2.03559e+00	1.46333e+02
957	1.50081e+02	9.57000e+02	2.03441e+00	1.49500e+02
976	1.53289e+02	9.76000e+02	2.03303e+00	1.52667e+02
995	1.56516e+02	9.95000e+02	2.03168e+00	1.55833e+02
1014	1.59709e+02	1.01400e+03	2.03017e+00	1.59000e+02
1033	1.62935e+02	1.03300e+03	2.02855e+00	1.62167e+02
1052	1.66144e+02	1.05200e+03	2.02632e+00	1.65333e+02
1071	1.69368e+02	1.07100e+03	2.02348e+00	1.68500e+02
1090	1.72598e+02	1.09000e+03	2.01943e+00	1.71667e+02
1109	1.75807e+02	1.10900e+03	2.01425e+00	1.74833e+02
1128	1.79020e+02	1.12800e+03	2.00799e+00	1.78000e+02
1147	1.82256e+02	1.14700e+03	2.00020e+00	1.81167e+02
1166	1.85467e+02	1.16600e+03	1.99241e+00	1.84333e+02
1185	1.88682e+02	1.18500e+03	1.98558e+00	1.87500e+02
1204	1.91903e+02	1.20400e+03	1.97976e+00	1.90667e+02
1223	1.95108e+02	1.22300e+03	1.97458e+00	1.93833e+02
1242	1.98321e+02	1.24200e+03	1.97130e+00	1.97000e+02
1261	2.01526e+02	1.26100e+03	1.96859e+00	2.00167e+02
1280	2.04742e+02	1.28000e+03	1.96677e+00	2.03333e+02
1299	2.07936e+02	1.29900e+03	1.96548e+00	2.06500e+02
1318	2.11126e+02	1.31800e+03	1.96386e+00	2.09667e+02
1337	2.14328e+02	1.33700e+03	1.96257e+00	2.12833e+02
1356	2.17522e+02	1.35600e+03	1.96113e+00	2.16000e+02
1375	2.20715e+02	1.37500e+03	1.95950e+00	2.19167e+02
1394	2.23924e+02	1.39400e+03	1.95833e+00	2.22333e+02
1413	2.27115e+02	1.41300e+03	1.95704e+00	2.25500e+02
1432	2.30308e+02	1.43200e+03	1.95624e+00	2.28667e+02
1451	2.33509e+02	1.45100e+03	1.95561e+00	2.31833e+02
1470	2.36705e+02	1.47000e+03	1.95492e+00	2.35000e+02
1489	2.39903e+02	1.48900e+03	1.95424e+00	2.38167e+02
1508	2.43125e+02	1.50800e+03	1.95355e+00	2.41333e+02
1527	2.46313e+02	1.52700e+03	1.95319e+00	2.44500e+02
1546	2.49502e+02	1.54600e+03	1.95217e+00	2.47667e+02
1565	2.52734e+02	1.56500e+03	1.95132e+00	2.50833e+02
1584	2.55916e+02	1.58400e+03	1.95050e+00	2.54000e+02
1603	2.59083e+02	1.60300e+03	1.94968e+00	2.57167e+02
1622	2.62268e+02	1.62200e+03	1.94852e+00	2.60333e+02
1641	2.65459e+02	1.64100e+03	1.94733e+00	2.63500e+02
1660	2.68635e+02	1.66000e+03	1.94569e+00	2.66667e+02
1679	2.71821e+02	1.67900e+03	1.94346e+00	2.69833e+02
1698	2.74995e+02	1.69800e+03	1.94109e+00	2.73000e+02
1717	2.78176e+02	1.71700e+03	1.93764e+00	2.76167e+02
1736	2.81345e+02	1.73600e+03	1.93404e+00	2.79333e+02
1755	2.84517e+02	1.75500e+03	1.92935e+00	2.82500e+02
1774	2.87661e+02	1.77400e+03	1.92353e+00	2.85667e+02
1793	2.90792e+02	1.79300e+03	1.91691e+00	2.88833e+02
1812	2.93866e+02	1.81200e+03	1.90839e+00	2.92000e+02
1831	2.96903e+02	1.83100e+03	1.89937e+00	2.95167e+02
1850	2.99938e+02	1.85000e+03	1.88887e+00	2.98333e+02
1869	3.03014e+02	1.86900e+03	1.87774e+00	3.01500e+02
1888	3.06157e+02	1.88800e+03	1.86709e+00	3.04667e+02
1907	3.09326e+02	1.90700e+03	1.85690e+00	3.07833e+02
1926	3.12481e+02	1.92600e+03	1.84609e+00	3.11000e+02
1945	3.15636e+02	1.94500e+03	1.83500e+00	3.14167e+02
1964	3.18778e+02	1.96400e+03	1.82205e+00	3.17333e+02
1983	3.21926e+02	1.98300e+03	1.80678e+00	3.20500e+02
2002	3.25073e+02	2.00200e+03	1.78815e+00	3.23667e+02
2021	3.28217e+02	2.02100e+03	1.76535e+00	3.26833e+02
2040	3.31361e+02	2.04000e+03	1.73741e+00	3.30000e+02
2059	3.34499e+02	2.05900e+03	1.70264e+00	3.33167e+02
2078	3.37655e+02	2.07800e+03	1.66104e+00	3.36333e+02
2097	3.40806e+02	2.09700e+03	1.61025e+00	3.39500e+02
2116	3.43927e+02	2.11600e+03	1.55013e+00	3.42667e+02
2135	3.47077e+02	2.13500e+03	1.48069e+00	3.45833e+02
2154	3.50208e+02	2.15400e+03	1.40233e+00	3.49000e+02
2173	3.53343e+02	2.17300e+03	1.31537e+00	3.52167e+02
2192	3.56461e+02	2.19200e+03	1.22154e+00	3.55333e+02
2211	3.59587e+02	2.21100e+03	1.12053e+00	3.58500e+02
2230	3.62730e+02	2.23000e+03	1.01560e+00	3.61667e+02
2249	3.65906e+02	2.24900e+03	9.08859e-01	3.64833e+02
2268	3.69068e+02	2.26800e+03	7.99892e-01	3.68000e+02
2287	3.72254e+02	2.28700e+03	6.91110e-01	3.71167e+02
2306	3.75416e+02	2.30600e+03	5.88345e-01	3.74333e+02
2325	3.78588e+02	2.32500e+03	4.94207e-01	3.77500e+02
2344	3.81768e+02	2.34400e+03	4.09800e-01	3.80667e+02
2363	3.84962e+02	2.36300e+03	3.36828e-01	3.83833e+02
2382	3.88177e+02	2.38200e+03	2.75171e-01	3.87000e+02
2401	3.91381e+02	2.40100e+03	2.24102e-01	3.90167e+02
2420	3.94547e+02	2.42000e+03	1.82817e-01	3.93333e+02
2439	3.97693e+02	2.43900e+03	1.50817e-01	3.96500e+02
2458	4.00876e+02	2.45800e+03	1.25964e-01	3.99667e+02
2477	4.04065e+02	2.47700e+03	1.07496e-01	4.02833e+02
2496	4.07221e+02	2.49600e+03	9.43122e-02	4.06000e+02
2515	4.10388e+02	2.51500e+03	8.47738e-02	4.09167e+02
2534	4.13536e+02	2.53400e+03	7.82341e-02	4.12333e+02
2553	4.16697e+02	2.55300e+03	7.37774e-02	4.15500e+02
2572	4.19858e+02	2.57200e+03	7.06956e-02	4.18667e+02
2591	4.22986e+02	2.59100e+03	6.85538e-02	4.21833e+02
2610	4.26105e+02	2.61000e+03	6.67527e-02	4.25000e+02
2629	4.29206e+02	2.62900e+03	6.61547e-02	4.28167e+02
2648	4.32316e+02	2.64800e+03	6.53353e-02	4.31333e+02
2667	4.35439e+02	2.66700e+03	6.48596e-02	4.34500e+02
2686	4.38563e+02	2.68600e+03	6.43852e-02	4.37667e+02
2705	4.41660e+02	2.70500e+03	6.43388e-02	4.40833e+02
2724	4.44731e+02	2.72400e+03	6.41289e-02	4.44000e+02
2743	4.47790e+02	2.74300e+03	6.40684e-02	4.47167e+02
2762	4.50898e+02	2.76200e+03	6.37629e-02	4.50333e+02
2781	4.54020e+02	2.78100e+03	6.36519e-02	4.53500e+02
2800	4.57147e+02	2.80000e+03	6.38036e-02	4.56667e+02
2819	4.60266e+02	2.81900e+03	6.35557e-02	4.59833e+02
2838	4.63408e+02	2.83800e+03	6.34061e-02	4.63000e+02
2857	4.66536e+02	2.85700e+03	6.33215e-02	4.66167e+02
2876	4.69655e+02	2.87600e+03	6.32762e-02	4.69333e+02
2895	4.72777e+02	2.89500e+03	6.36295e-02	4.72500e+02
2914	4.75896e+02	2.91400e+03	6.31550e-02	4.75667e+02
2933	4.79021e+02	2.93300e+03	6.30535e-02	4.78833e+02
2952	4.82144e+02	2.95200e+03	6.30505e-02	4.82000e+02
2971	4.85273e+02	2.97100e+03	6.29420e-02	4.85167e+02
2990	4.88392e+02	2.99000e+03	6.28460e-02	4.88333e+02
3009	4.91528e+02	3.00900e+03	6.31846e-02	4.91500e+02
3028	4.94655e+02	3.02800e+03	6.33055e-02	4.94667e+02
3047	4.97792e+02	3.04700e+03	6.29141e-02	4.97833e+02
3066	5.00920e+02	3.06600e+03	6.29089e-02	5.01000e+02
3085	5.04054e+02	3.08500e+03	6.29270e-02	5.04167e+02
3104	5.07201e+02	3.10400e+03	6.29459e-02	5.07333e+02
3123	5.10338e+02	3.12300e+03	6.28921e-02	5.10500e+02
3142	5.13491e+02	3.14200e+03	6.30428e-02	5.13667e+02
3161	5.16627e+02	3.16100e+03	6.32061e-02	5.16833e+02
3180	5.19775e+02	3.18000e+03	6.31543e-02	5.20000e+02
3199	5.22951e+02	3.19900e+03	6.29276e-02	5.23167e+02
3218	5.26093e+02	3.21800e+03	6.30773e-02	5.26333e+02
3237	5.29225e+02	3.23700e+03	6.29122e-02	5.29500e+02
3256	5.32374e+02	3.25600e+03	6.27503e-02	5.32667e+02
3275	5.35502e+02	3.27500e+03	6.27521e-02	5.35833e+02
3294	5.38667e+02	3.29400e+03	6.27183e-02	5.39000e+02
3313	5.41765e+02	3.31300e+03	6.27905e-02	5.42167e+02
3332	5.44882e+02	3.33200e+03	6.30472e-02	5.45333e+02
3351	5.48004e+02	3.35100e+03	6.28657e-02	5.48500e+02
3370	5.51119e+02	3.37000e+03	6.28322e-02	5.51667e+02
3389	5.54254e+02	3.38900e+03	6.28935e-02	5.54833e+02
3408	5.57403e+02	3.40800e+03	6.27408e-02	5.58000e+02
3427	5.60566e+02	3.42700e+03	6.28507e-02	5.61167e+02
3446	5.63684e+02	3.44600e+03	6.27271e-02	5.64333e+02
3465	5.66821e+02	3.46500e+03	6.27250e-02	5.67500e+02
3484	5.69983e+02	3.48400e+03	6.26396e-02	5.70667e+02
3503	5.73132e+02	3.50300e+03	6.27133e-02	5.73833e+02
3522	5.76277e+02	3.52200e+03	6.24130e-02	5.77000e+02
3541	5.79428e+02	3.54100e+03	6.30162e-02	5.80167e+02
3560	5.82594e+02	3.56000e+03	6.25216e-02	5.83333e+02
3579	5.85757e+02	3.57900e+03	6.25529e-02	5.86500e+02
3598	5.88914e+02	3.59800e+03	6.22375e-02	5.89667e+02
3617	5.92066e+02	3.61700e+03	6.24972e-02	5.92833e+02
3636	5.95212e+02	3.63600e+03	6.25281e-02	5.96000e+02
3655	5.98367e+02	3.65500e+03	6.23186e-02	5.99167e+02
3674	6.01540e+02	3.67400e+03	6.19996e-02	6.02333e+02
3693	6.04712e+02	3.69300e+03	6.22170e-02	6.05500e+02
3712	6.07907e+02	3.71200e+03	6.23151e-02	6.08667e+02
3731	6.11104e+02	3.73100e+03	6.24124e-02	6.11833e+02
3750	6.14273e+02	3.75000e+03	6.22527e-02	6.15000e+02
3769	6.17418e+02	3.76900e+03	6.23302e-02	6.18167e+02
3788	6.20566e+02	3.78800e+03	6.22797e-02	6.21333e+02
3807	6.23699e+02	3.80700e+03	6.21308e-02	6.24500e+02
3826	6.26844e+02	3.82600e+03	6.22780e-02	6.27667e+02
3845	6.30015e+02	3.84500e+03	6.22666e-02	6.30833e+02
3864	6.33178e+02	3.86400e+03	6.22206e-02	6.34000e+02
3883	6.36355e+02	3.88300e+03	6.23337e-02	6.37167e+02
3902	6.39519e+02	3.90200e+03	6.20234e-02	6.40333e+02
3921	6.42643e+02	3.92100e+03	6.21385e-02	6.43500e+02
3940	6.45787e+02	3.94000e+03	6.19774e-02	6.46667e+02
3959	6.48931e+02	3.95900e+03	6.22772e-02	6.49833e+02
3978	6.52060e+02	3.97800e+03	6.20657e-02	6.53000e+02
3997	6.55196e+02	3.99700e+03	6.21375e-02	6.56167e+02
4016	6.58357e+02	4.01600e+03	6.18686e-02	6.59333e+02
4035	6.61511e+02	4.03500e+03	6.19283e-02	6.62500e+02
4054	6.64674e+02	4.05400e+03	6.19047e-02	6.65667e+02
4073	6.67841e+02	4.07300e+03	6.18907e-02	6.68833e+02
4092	6.71028e+02	4.09200e+03	6.18631e-02	6.72000e+02
4111	6.74189e+02	4.11100e+03	6.19556e-02	6.75167e+02
4130	6.77349e+02	4.13000e+03	6.18093e-02	6.78333e+02
4149	6.80514e+02	4.14900e+03	6.15805e-02	6.81500e+02
4168	6.83685e+02	4.16800e+03	6.16864e-02	6.84667e+02
4187	6.86854e+02	4.18700e+03	6.16137e-02	6.87833e+02
4206	6.90041e+02	4.20600e+03	6.18772e-02	6.91000e+02
4225	6.93199e+02	4.22500e+03	6.17279e-02	6.94167e+02
4244	6.95815e+02	4.24400e+03	6.17354e-02	6.97333e+02
4260	6.97194e+02	4.26000e+03	6.16122e-02	7.00000e+02

File: tga_dynamic_n2_dyn10_powder_2mg_r3.txt
index	ts	t	weight	tr
[#]	[°C]	[s]	[mg]	[°C]
843	1.30876e+02	8.43000e+02	2.01657e+00	1.30500e+02
862	1.34083e+02	8.62000e+02	2.01664e+00	1.33667e+02
881	1.37278e+02	8.81000e+02	2.01563e+00	1.36833e+02
900	1.40490e+02	9.00000e+02	2.01529e+00	1.40000e+02
919	1.43683e+02	9.19000e+02	2.01428e+00	1.43167e+02
938	1.46885e+02	9.38000e+02	2.01364e+00	1.46333e+02
957	1.50084e+02	9.57000e+02	2.01226e+00	1.49500e+02
976	1.53308e+02	9.76000e+02	2.01079e+00	1.52667e+02
995	1.56514e+02	9.95000e+02	2.00932e+00	1.55833e+02
1014	1.59718e+02	1.01400e+03	2.00758e+00	1.59000e+02
1033	1.62934e+02	1.03300e+03	2.00567e+00	1.62167e+02
1052	1.66151e+02	1.05200e+03	2.00276e+00	1.65333e+02
1071	1.69355e+02	1.07100e+03	1.99870e+00	1.68500e+02
1090	1.72564e+02	1.09000e+03	1.99341e+00	1.71667e+02
1109	1.75768e+02	1.10900e+03	1.98662e+00	1.74833e+02
1128	1.78999e+02	1.12800e+03	1.97879e+00	1.78000e+02
1147	1.82206e+02	1.14700e+03	1.97023e+00	1.81167e+02
1166	1.85425e+02	1.16600e+03	1.96145e+00	1.84333e+02
1185	1.88633e+02	1.18500e+03	1.95365e+00	1.87500e+02
1204	1.91840e+02	1.20400e+03	1.94725e+00	1.90667e+02
1223	1.95039e+02	1.22300e+03	1.94210e+00	1.93833e+02
1242	1.98249e+02	1.24200e+03	1.93874e+00	1.97000e+02
1261	2.01431e+02	1.26100e+03	1.93590e+00	2.00167e+02
1280	2.04620e+02	1.28000e+03	1.93432e+00	2.03333e+02
1299	2.07810e+02	1.29900e+03	1.93264e+00	2.06500e+02
1318	2.10993e+02	1.31800e+03	1.93105e+00	2.09667e+02
1337	2.14171e+02	1.33700e+03	1.92969e+00	2.12833e+02
1356	2.17368e+02	1.35600e+03	1.92845e+00	2.16000e+02
1375	2.20559e+02	1.37500e+03	1.92696e+00	2.19167e+02
1394	2.23743e+02	1.39400e+03	1.92579e+00	2.22333e+02
1413	2.26924e+02	1.41300e+03	1.92472e+00	2.25500e+02
1432	2.30094e+02	1.43200e+03	1.92377e+00	2.28667e+02
1451	2.33273e+02	1.45100e+03	1.92333e+00	2.31833e+02
1470	2.36470e+02	1.47000e+03	1.92244e+00	2.35000e+02
1489	2.39643e+02	1.48900e+03	1.92162e+00	2.38167e+02
1508	2.42842e+02	1.50800e+03	1.92107e+00	2.41333e+02
1527	2.46079e+02	1.52700e+03	1.92071e+00	2.44500e+02
1546	2.49291e+02	1.54600e+03	1.91956e+00	2.47667e+02
1565	2.52533e+02	1.56500e+03	1.91910e+00	2.50833e+02
1584	2.55798e+02	1.58400e+03	1.91818e+00	2.54000e+02
1603	2.59031e+02	1.60300e+03	1.91754e+00	2.57167e+02
1622	2.62249e+02	1.62200e+03	1.91628e+00	2.60333e+02
1641	2.65453e+02	1.64100e+03	1.91505e+00	2.63500e+02
1660	2.68726e+02	1.66000e+03	1.91337e+00	2.66667e+02
1679	2.71958e+02	1.67900e+03	1.91120e+00	2.69833e+02
1698	2.75257e+02	1.69800e+03	1.90899e+00	2.73000e+02
1717	2.78503e+02	1.71700e+03	1.90555e+00	2.76167e+02
1736	2.81679e+02	1.73600e+03	1.90204e+00	2.79333e+02
1755	2.84858e+02	1.75500e+03	1.89753e+00	2.82500e+02
1774	2.87963e+02	1.77400e+03	1.89213e+00	2.85667e+02
1793	2.91095e+02	1.79300e+03	1.88564e+00	2.88833e+02
1812	2.94270e+02	1.81200e+03	1.87770e+00	2.92000e+02
1831	2.97414e+02	1.83100e+03	1.86940e+00	2.95167e+02
1850	3.00532e+02	1.85000e+03	1.86018e+00	2.98333e+02
1869	3.03681e+02	1.86900e+03	1.85078e+00	3.01500e+02
1888	3.06855e+02	1.88800e+03	1.84092e+00	3.04667e+02
1907	3.10057e+02	1.90700e+03	1.83085e+00	3.07833e+02
1926	3.13278e+02	1.92600e+03	1.82050e+00	3.11000e+02
1945	3.16542e+02	1.94500e+03	1.80941e+00	3.14167e+02
1964	3.19794e+02	1.96400e+03	1.79654e+00	3.17333e+02
1983	3.23245e+02	1.98300e+03	1.78118e+00	3.20500e+02
2002	3.26555e+02	2.00200e+03	1.76300e+00	3.23667e+02
2021	3.29940e+02	2.02100e+03	1.74033e+00	3.26833e+02
2040	3.33257e+02	2.04000e+03	1.71235e+00	3.30000e+02
2059	3.36453e+02	2.05900e+03	1.67801e+00	3.33167e+02
2078	3.39470e+02	2.07800e+03	1.63686e+00	3.36333e+02
2097	3.42442e+02	2.09700e+03	1.58661e+00	3.39500e+02
2116	3.45601e+02	2.11600e+03	1.52749e+00	3.42667e+02
2135	3.48728e+02	2.13500e+03	1.45881e+00	3.45833e+02
2154	3.51887e+02	2.15400e+03	1.38147e+00	3.49000e+02
2173	3.55145e+02	2.17300e+03	1.29597e+00	3.52167e+02
2192	3.58352e+02	2.19200e+03	1.20281e+00	3.55333e+02
2211	3.61583e+02	2.21100e+03	1.10307e+00	3.58500e+02
2230	3.64826e+02	2.23000e+03	9.99693e-01	3.61667e+02
2249	3.68174e+02	2.24900e+03	8.95021e-01	3.64833e+02
2268	3.71574e+02	2.26800e+03	7.87175e-01	3.68000e+02
2287	3.74970e+02	2.28700e+03	6.79468e-01	3.71167e+02
2306	3.78324e+02	2.30600e+03	5.78233e-01	3.74333e+02
2325	3.81431e+02	2.32500e+03	4.84423e-01	3.77500e+02
2344	3.84789e+02	2.34400e+03	4.03867e-01	3.80667e+02
2363	3.87772e+02	2.36300e+03	3.33144e-01	3.83833e+02
2382	3.91264e+02	2.38200e+03	2.73601e-01	3.87000e+02
2401	3.94430e+02	2.40100e+03	2.24727e-01	3.90167e+02
2420	3.97663e+02	2.42000e+03	1.85359e-01	3.93333e+02
2439	4.00725e+02	2.43900e+03	1.54706e-01	3.96500e+02
2458	4.03447e+02	2.45800e+03	1.31124e-01	3.99667e+02
2477	4.06410e+02	2.47700e+03	1.13641e-01	4.02833e+02
2496	4.09525e+02	2.49600e+03	1.01186e-01	4.06000e+02
2515	4.12686e+02	2.51500e+03	9.24595e-02	4.09167e+02
2534	4.15838e+02	2.53400e+03	8.58213e-02	4.12333e+02
2553	4.18903e+02	2.55300e+03	8.15837e-02	4.15500e+02
2572	4.21817e+02	2.57200e+03	7.86960e-02	4.18667e+02
2591	4.24884e+02	2.59100e+03	7.68804e-02	4.21833e+02
2610	4.27957e+02	2.61000e+03	7.51894e-02	4.25000e+02
2629	4.31063e+02	2.62900e+03	7.46268e-02	4.28167e+02
2648	4.34200e+02	2.64800e+03	7.38288e-02	4.31333e+02
2667	4.37424e+02	2.66700e+03	7.36512e-02	4.34500e+02
2686	4.40665e+02	2.68600e+03	7.33859e-02	4.37667e+02
2705	4.43669e+02	2.70500e+03	7.33382e-02	4.40833e+02
2724	4.46711e+02	2.72400e+03	7.29301e-02	4.44000e+02
2743	4.49855e+02	2.74300e+03	7.30892e-02	4.47167e+02
2762	4.52413e+02	2.76200e+03	7.01857e-02	4.50333e+02
2781	4.55340e+02	2.78100e+03	7.26558e-02	4.53500e+02
2800	4.58394e+02	2.80000e+03	7.27537e-02	4.56667e+02
2819	4.61458e+02	2.81900e+03	7.25600e-02	4.59833e+02
2838	4.64502e+02	2.83800e+03	7.22629e-02	4.63000e+02
2857	4.67578e+02	2.85700e+03	7.24330e-02	4.66167e+02
2876	4.70670e+02	2.87600e+03	7.23435e-02	4.69333e+02
2895	4.73769e+02	2.89500e+03	7.21534e-02	4.72500e+02
2914	4.76891e+02	2.91400e+03	7.20067e-02	4.75667e+02
2933	4.79998e+02	2.93300e+03	7.21947e-02	4.78833e+02
2952	4.83110e+02	2.95200e+03	7.20726e-02	4.82000e+02
2971	4.86196e+02	2.97100e+03	7.19853e-02	4.85167e+02
2990	4.89333e+02	2.99000e+03	7.17760e-02	4.88333e+02
3009	4.92455e+02	3.00900e+03	7.21070e-02	4.91500e+02
3028	4.95573e+02	3.02800e+03	7.21385e-02	4.94667e+02
3047	4.98731e+02	3.04700e+03	7.19948e-02	4.97833e+02
3066	5.01897e+02	3.06600e+03	7.17471e-02	5.01000e+02
3085	5.05068e+02	3.08500e+03	7.17809e-02	5.04167e+02
3104	5.08248e+02	3.10400e+03	7.18311e-02	5.07333e+02
3123	5.11405e+02	3.12300e+03	7.18070e-02	5.10500e+02
3142	5.14577e+02	3.14200e+03	7.19134e-02	5.13667e+02
3161	5.17727e+02	3.16100e+03	7.20674e-02	5.16833e+02
3180	5.20945e+02	3.18000e+03	7.17884e-02	5.20000e+02
3199	5.24131e+02	3.19900e+03	7.18573e-02	5.23167e+02
3218	5.27317e+02	3.21800e+03	7.18842e-02	5.26333e+02
3237	5.30542e+02	3.23700e+03	7.17319e-02	5.29500e+02
3256	5.33729e+02	3.25600e+03	7.19233e-02	5.32667e+02
3275	5.36903e+02	3.27500e+03	7.18065e-02	5.35833e+02
3294	5.40030e+02	3.29400e+03	7.17205e-02	5.39000e+02
3313	5.43150e+02	3.31300e+03	7.15805e-02	5.42167e+02
3332	5.46358e+02	3.33200e+03	7.14684e-02	5.45333e+02
3351	5.49536e+02	3.35100e+03	7.18402e-02	5.48500e+02
3370	5.52696e+02	3.37000e+03	7.16870e-02	5.51667e+02
3389	5.55858e+02	3.38900e+03	7.17988e-02	5.54833e+02
3408	5.59049e+02	3.40800e+03	7.15535e-02	5.58000e+02
3427	5.62189e+02	3.42700e+03	7.14024e-02	5.61167e+02
3446	5.65305e+02	3.44600e+03	7.17808e-02	5.64333e+02
3465	5.68411e+02	3.46500e+03	7.14401e-02	5.67500e+02
3484	5.71484e+02	3.48400e+03	7.14423e-02	5.70667e+02
3503	5.74573e+02	3.50300e+03	7.10402e-02	5.73833e+02
3522	5.77634e+02	3.52200e+03	7.10632e-02	5.77000e+02
3541	5.80728e+02	3.54100e+03	7.11689e-02	5.80167e+02
3560	5.83821e+02	3.56000e+03	7.09568e-02	5.83333e+02
3579	5.86928e+02	3.57900e+03	7.09412e-02	5.86500e+02
3598	5.90072e+02	3.59800e+03	7.08455e-02	5.89667e+02
3617	5.93205e+02	3.61700e+03	7.10299e-02	5.92833e+02
3636	5.96369e+02	3.63600e+03	7.09825e-02	5.96000e+02
3655	5.99562e+02	3.65500e+03	7.08731e-02	5.99167e+02
3674	6.02813e+02	3.67400e+03	7.11264e-02	6.02333e+02
3693	6.06043e+02	3.69300e+03	7.10227e-02	6.05500e+02
3712	6.09199e+02	3.71200e+03	7.10543e-02	6.08667e+02
3731	6.12356e+02	3.73100e+03	7.12031e-02	6.11833e+02
3750	6.15516e+02	3.75000e+03	7.10626e-02	6.15000e+02
3769	6.18645e+02	3.76900e+03	7.08744e-02	6.18167e+02
3788	6.21807e+02	3.78800e+03	7.11024e-02	6.21333e+02
3807	6.24963e+02	3.80700e+03	7.08733e-02	6.24500e+02
3826	6.28124e+02	3.82600e+03	7.09966e-02	6.27667e+02
3845	6.31248e+02	3.84500e+03	7.10725e-02	6.30833e+02
3864	6.34392e+02	3.86400e+03	7.10129e-02	6.34000e+02
3883	6.37546e+02	3.88300e+03	7.07032e-02	6.37167e+02
3902	6.40721e+02	3.90200e+03	7.05942e-02	6.40333e+02
3921	6.43879e+02	3.92100e+03	7.06467e-02	6.43500e+02
3940	6.46983e+02	3.94000e+03	7.05094e-02	6.46667e+02
3959	6.50104e+02	3.95900e+03	7.08476e-02	6.49833e+02
3978	6.53251e+02	3.97800e+03	7.06643e-02	6.53000e+02
3997	6.56405e+02	3.99700e+03	7.06521e-02	6.56167e+02
4016	6.59544e+02	4.01600e+03	7.05341e-02	6.59333e+02
4035	6.62696e+02	4.03500e+03	7.06370e-02	6.62500e+02
4054	6.65817e+02	4.05400e+03	7.05049e-02	6.65667e+02
4073	6.68977e+02	4.07300e+03	7.07136e-02	6.68833e+02
4092	6.72133e+02	4.09200e+03	7.07264e-02	6.72000e+02
4111	6.75300e+02	4.11100e+03	7.05580e-02	6.75167e+02
4130	6.78483e+02	4.13000e+03	7.04845e-02	6.78333e+02
4149	6.81640e+02	4.14900e+03	7.01083e-02	6.81500e+02
4168	6.84819e+02	4.16800e+03	7.04828e-02	6.84667e+02
4187	6.87996e+02	4.18700e+03	7.01765e-02	6.87833e+02
4206	6.91165e+02	4.20600e+03	7.05319e-02	6.91000e+02
4225	6.94346e+02	4.22500e+03	7.04173e-02	6.94167e+02
4244	6.96936e+02	4.24400e+03	7.06423e-02	6.97333e+02
4260	6.98286e+02	4.26000e+03	7.04422e-02	7.00000e+02