Folder: Pyrolysis_BESKID/Experiments/TUBS/tga_nonisotherm (part 32)

File: tga_dynamic_n2_dyn30_powdertubs_3mg_r1.txt
index	ts	t	weight	tr
[#]	[°C]	[s]	[mg]	[°C]
683	1.31837e+02	6.83000e+02	2.99354e+00	1.31500e+02
690	1.35394e+02	6.90000e+02	2.99339e+00	1.35000e+02
697	1.38955e+02	6.97000e+02	2.99324e+00	1.38500e+02
704	1.42536e+02	7.04000e+02	2.99302e+00	1.42000e+02
711	1.46096e+02	7.11000e+02	2.99285e+00	1.45500e+02
718	1.49660e+02	7.18000e+02	2.99273e+00	1.49000e+02
725	1.53240e+02	7.25000e+02	2.99233e+00	1.52500e+02
732	1.56808e+02	7.32000e+02	2.99174e+00	1.56000e+02
739	1.60394e+02	7.39000e+02	2.99110e+00	1.59500e+02
746	1.63969e+02	7.46000e+02	2.99036e+00	1.63000e+02
753	1.67547e+02	7.53000e+02	2.98951e+00	1.66500e+02
760	1.71127e+02	7.60000e+02	2.98833e+00	1.70000e+02
767	1.74701e+02	7.67000e+02	2.98693e+00	1.73500e+02
774	1.78290e+02	7.74000e+02	2.98540e+00	1.77000e+02
781	1.81870e+02	7.81000e+02	2.98325e+00	1.80500e+02
788	1.85471e+02	7.88000e+02	2.98054e+00	1.84000e+02
795	1.89061e+02	7.95000e+02	2.97703e+00	1.87500e+02
802	1.92657e+02	8.02000e+02	2.97254e+00	1.91000e+02
809	1.96264e+02	8.09000e+02	2.96723e+00	1.94500e+02
816	1.99876e+02	8.16000e+02	2.96139e+00	1.98000e+02
823	2.03479e+02	8.23000e+02	2.95518e+00	2.01500e+02
830	2.07067e+02	8.30000e+02	2.94874e+00	2.05000e+02
837	2.10675e+02	8.37000e+02	2.94257e+00	2.08500e+02
844	2.14293e+02	8.44000e+02	2.93676e+00	2.12000e+02
851	2.17871e+02	8.51000e+02	2.93154e+00	2.15500e+02
858	2.21427e+02	8.58000e+02	2.92705e+00	2.19000e+02
865	2.25010e+02	8.65000e+02	2.92314e+00	2.22500e+02
872	2.28608e+02	8.72000e+02	2.91975e+00	2.26000e+02
879	2.32146e+02	8.79000e+02	2.91656e+00	2.29500e+02
886	2.35686e+02	8.86000e+02	2.91372e+00	2.33000e+02
893	2.39246e+02	8.93000e+02	2.91117e+00	2.36500e+02
900	2.42744e+02	9.00000e+02	2.90891e+00	2.40000e+02
907	2.46290e+02	9.07000e+02	2.90668e+00	2.43500e+02
914	2.49883e+02	9.14000e+02	2.90442e+00	2.47000e+02
921	2.53414e+02	9.21000e+02	2.90241e+00	2.50500e+02
928	2.56971e+02	9.28000e+02	2.90046e+00	2.54000e+02
935	2.60541e+02	9.35000e+02	2.89833e+00	2.57500e+02
942	2.64115e+02	9.42000e+02	2.89623e+00	2.61000e+02
949	2.67687e+02	9.49000e+02	2.89412e+00	2.64500e+02
956	2.71186e+02	9.56000e+02	2.89180e+00	2.68000e+02
963	2.74739e+02	9.63000e+02	2.88912e+00	2.71500e+02
970	2.78312e+02	9.70000e+02	2.88620e+00	2.75000e+02
977	2.81883e+02	9.77000e+02	2.88286e+00	2.78500e+02
984	2.85472e+02	9.84000e+02	2.87895e+00	2.82000e+02
991	2.88986e+02	9.91000e+02	2.87459e+00	2.85500e+02
998	2.92501e+02	9.98000e+02	2.86946e+00	2.89000e+02
1005	2.96066e+02	1.00500e+03	2.86321e+00	2.92500e+02
1012	2.99530e+02	1.01200e+03	2.85575e+00	2.96000e+02
1019	3.02984e+02	1.01900e+03	2.84731e+00	2.99500e+02
1026	3.06396e+02	1.02600e+03	2.83754e+00	3.03000e+02
1033	3.09770e+02	1.03300e+03	2.82667e+00	3.06500e+02
1040	3.13110e+02	1.04000e+03	2.81470e+00	3.10000e+02
1047	3.16420e+02	1.04700e+03	2.80188e+00	3.13500e+02
1054	3.19805e+02	1.05400e+03	2.78846e+00	3.17000e+02
1061	3.23106e+02	1.06100e+03	2.77437e+00	3.20500e+02
1068	3.26446e+02	1.06800e+03	2.75883e+00	3.24000e+02
1075	3.29906e+02	1.07500e+03	2.74195e+00	3.27500e+02
1082	3.33410e+02	1.08200e+03	2.72455e+00	3.31000e+02
1089	3.36924e+02	1.08900e+03	2.70547e+00	3.34500e+02
1096	3.40413e+02	1.09600e+03	2.68287e+00	3.38000e+02
1103	3.43913e+02	1.10300e+03	2.65529e+00	3.41500e+02
1110	3.47419e+02	1.11000e+03	2.62065e+00	3.45000e+02
1117	3.50928e+02	1.11700e+03	2.57750e+00	3.48500e+02
1124	3.54437e+02	1.12400e+03	2.52382e+00	3.52000e+02
1131	3.57825e+02	1.13100e+03	2.45827e+00	3.55500e+02
1138	3.61279e+02	1.13800e+03	2.37825e+00	3.59000e+02
1145	3.64653e+02	1.14500e+03	2.28265e+00	3.62500e+02
1152	3.68049e+02	1.15200e+03	2.17109e+00	3.66000e+02
1159	3.71473e+02	1.15900e+03	2.04377e+00	3.69500e+02
1166	3.74896e+02	1.16600e+03	1.89943e+00	3.73000e+02
1173	3.78361e+02	1.17300e+03	1.74105e+00	3.76500e+02
1180	3.81826e+02	1.18000e+03	1.57327e+00	3.80000e+02
1187	3.85364e+02	1.18700e+03	1.39785e+00	3.83500e+02
1194	3.88922e+02	1.19400e+03	1.21375e+00	3.87000e+02
1201	3.92448e+02	1.20100e+03	1.02682e+00	3.90500e+02
1208	3.95994e+02	1.20800e+03	8.50654e-01	3.94000e+02
1215	3.99556e+02	1.21500e+03	6.89978e-01	3.97500e+02
1222	4.03097e+02	1.22200e+03	5.49043e-01	4.01000e+02
1229	4.06765e+02	1.22900e+03	4.28910e-01	4.04500e+02
1236	4.10334e+02	1.23600e+03	3.29368e-01	4.08000e+02
1243	4.13873e+02	1.24300e+03	2.48623e-01	4.11500e+02
1250	4.17414e+02	1.25000e+03	1.85671e-01	4.15000e+02
1257	4.20970e+02	1.25700e+03	1.37098e-01	4.18500e+02
1264	4.24604e+02	1.26400e+03	1.00542e-01	4.22000e+02
1271	4.28166e+02	1.27100e+03	7.32705e-02	4.25500e+02
1278	4.31747e+02	1.27800e+03	5.34286e-02	4.29000e+02
1285	4.35244e+02	1.28500e+03	3.88163e-02	4.32500e+02
1292	4.38722e+02	1.29200e+03	2.80264e-02	4.36000e+02
1299	4.42211e+02	1.29900e+03	1.97078e-02	4.39500e+02
1306	4.45668e+02	1.30600e+03	1.33633e-02	4.43000e+02
1313	4.49132e+02	1.31300e+03	8.42615e-03	4.46500e+02
1320	4.52616e+02	1.32000e+03	4.82550e-03	4.50000e+02
1327	4.56131e+02	1.32700e+03	2.49051e-03	4.53500e+02
1334	4.59657e+02	1.33400e+03	1.31822e-03	4.57000e+02
1341	4.63123e+02	1.34100e+03	8.04086e-04	4.60500e+02
1348	4.66550e+02	1.34800e+03	4.88954e-04	4.64000e+02
1355	4.69991e+02	1.35500e+03	1.22732e-04	4.67500e+02
1362	4.73417e+02	1.36200e+03	-1.91306e-04	4.71000e+02
1369	4.76840e+02	1.36900e+03	-2.82993e-04	4.74500e+02
1376	4.80229e+02	1.37600e+03	-4.29790e-04	4.78000e+02
1383	4.83620e+02	1.38300e+03	-6.49285e-04	4.81500e+02
1390	4.86991e+02	1.39000e+03	-7.86639e-04	4.85000e+02
1397	4.90370e+02	1.39700e+03	-9.21383e-04	4.88500e+02
1404	4.93762e+02	1.40400e+03	-1.04425e-03	4.92000e+02
1411	4.97190e+02	1.41100e+03	-1.34228e-03	4.95500e+02
1418	5.00622e+02	1.41800e+03	-1.46955e-03	4.99000e+02
1425	5.04048e+02	1.42500e+03	-1.57501e-03	5.02500e+02
1432	5.07493e+02	1.43200e+03	-1.74029e-03	5.06000e+02
1439	5.10958e+02	1.43900e+03	-1.78742e-03	5.09500e+02
1446	5.14423e+02	1.44600e+03	-1.96379e-03	5.13000e+02
1453	5.17904e+02	1.45300e+03	-2.36912e-03	5.16500e+02
1460	5.21352e+02	1.46000e+03	-2.02448e-03	5.20000e+02
1467	5.24841e+02	1.46700e+03	-2.05733e-03	5.23500e+02
1474	5.28305e+02	1.47400e+03	-2.28631e-03	5.27000e+02
1481	5.31763e+02	1.48100e+03	-2.45345e-03	5.30500e+02
1488	5.35208e+02	1.48800e+03	-2.55014e-03	5.34000e+02
1495	5.38675e+02	1.49500e+03	-2.64975e-03	5.37500e+02
1502	5.42105e+02	1.50200e+03	-2.83052e-03	5.41000e+02
1509	5.45629e+02	1.50900e+03	-2.88190e-03	5.44500e+02
1516	5.49269e+02	1.51600e+03	-3.02857e-03	5.48000e+02
1523	5.53168e+02	1.52300e+03	-3.12341e-03	5.51500e+02
1530	5.56677e+02	1.53000e+03	-3.35346e-03	5.55000e+02
1537	5.60293e+02	1.53700e+03	-3.59441e-03	5.58500e+02
1544	5.63868e+02	1.54400e+03	-3.29081e-03	5.62000e+02
1551	5.67396e+02	1.55100e+03	-3.49276e-03	5.65500e+02
1558	5.70851e+02	1.55800e+03	-3.63826e-03	5.69000e+02
1565	5.74397e+02	1.56500e+03	-3.85219e-03	5.72500e+02
1572	5.78220e+02	1.57200e+03	-3.95588e-03	5.76000e+02
1579	5.81150e+02	1.57900e+03	-4.00735e-03	5.79500e+02
1586	5.84451e+02	1.58600e+03	-4.11147e-03	5.83000e+02
1593	5.87829e+02	1.59300e+03	-4.10374e-03	5.86500e+02
1600	5.91225e+02	1.60000e+03	-4.17164e-03	5.90000e+02
1607	5.94598e+02	1.60700e+03	-4.31292e-03	5.93500e+02
1614	5.97983e+02	1.61400e+03	-4.29339e-03	5.97000e+02
1621	6.01399e+02	1.62100e+03	-4.42952e-03	6.00500e+02
1628	6.04827e+02	1.62800e+03	-4.57806e-03	6.04000e+02
1635	6.08243e+02	1.63500e+03	-4.62178e-03	6.07500e+02
1642	6.11663e+02	1.64200e+03	-4.74668e-03	6.11000e+02
1649	6.15095e+02	1.64900e+03	-4.83601e-03	6.14500e+02
1656	6.18493e+02	1.65600e+03	-4.85879e-03	6.18000e+02
1663	6.21943e+02	1.66300e+03	-4.95164e-03	6.21500e+02
1670	6.25411e+02	1.67000e+03	-5.06648e-03	6.25000e+02
1677	6.28894e+02	1.67700e+03	-5.12106e-03	6.28500e+02
1684	6.32350e+02	1.68400e+03	-5.25805e-03	6.32000e+02
1691	6.35837e+02	1.69100e+03	-5.27921e-03	6.35500e+02
1698	6.39344e+02	1.69800e+03	-5.28455e-03	6.39000e+02
1705	6.42793e+02	1.70500e+03	-5.21120e-03	6.42500e+02
1712	6.46411e+02	1.71200e+03	-5.30889e-03	6.46000e+02
1719	6.50457e+02	1.71900e+03	-5.47786e-03	6.49500e+02
1726	6.54205e+02	1.72600e+03	-5.76838e-03	6.53000e+02
1733	6.57788e+02	1.73300e+03	-5.20379e-03	6.56500e+02
1740	6.61062e+02	1.74000e+03	-5.13555e-03	6.60000e+02
1747	6.64333e+02	1.74700e+03	-5.44381e-03	6.63500e+02
1754	6.67674e+02	1.75400e+03	-5.53701e-03	6.67000e+02
1761	6.71102e+02	1.76100e+03	-5.37971e-03	6.70500e+02
1768	6.74490e+02	1.76800e+03	-5.39971e-03	6.74000e+02
1775	6.77875e+02	1.77500e+03	-5.40320e-03	6.77500e+02
1782	6.81265e+02	1.78200e+03	-5.62679e-03	6.81000e+02
1789	6.84640e+02	1.78900e+03	-5.83661e-03	6.84500e+02
1796	6.87435e+02	1.79600e+03	-5.49382e-03	6.88000e+02
1803	6.89616e+02	1.80300e+03	-5.15826e-03	6.91500e+02
1810	6.91403e+02	1.81000e+03	-5.29669e-03	6.95000e+02
1817	6.92830e+02	1.81700e+03	-5.36948e-03	6.98500e+02
1820	6.93364e+02	1.82000e+03	-5.32145e-03	7.00000e+02

File: tga_dynamic_n2_dyn30_powdertubs_3mg_r2.txt
index	ts	t	weight	tr
[#]	[°C]	[s]	[mg]	[°C]
683	1.31110e+02	6.83000e+02	3.02485e+00	1.31500e+02
689	1.34115e+02	6.89000e+02	3.02477e+00	1.34500e+02
695	1.37122e+02	6.95000e+02	3.02472e+00	1.37500e+02
701	1.40131e+02	7.01000e+02	3.02447e+00	1.40500e+02
707	1.43137e+02	7.07000e+02	3.02431e+00	1.43500e+02
713	1.46160e+02	7.13000e+02	3.02420e+00	1.46500e+02
719	1.49173e+02	7.19000e+02	3.02403e+00	1.49500e+02
725	1.52201e+02	7.25000e+02	3.02377e+00	1.52500e+02
731	1.55236e+02	7.31000e+02	3.02346e+00	1.55500e+02
737	1.58252e+02	7.37000e+02	3.02308e+00	1.58500e+02
743	1.61277e+02	7.43000e+02	3.02247e+00	1.61500e+02
749	1.64317e+02	7.49000e+02	3.02181e+00	1.64500e+02
755	1.67341e+02	7.55000e+02	3.02110e+00	1.67500e+02
761	1.70372e+02	7.61000e+02	3.02010e+00	1.70500e+02
767	1.73424e+02	7.67000e+02	3.01900e+00	1.73500e+02
773	1.76444e+02	7.73000e+02	3.01789e+00	1.76500e+02
779	1.79498e+02	7.79000e+02	3.01641e+00	1.79500e+02
785	1.82550e+02	7.85000e+02	3.01436e+00	1.82500e+02
791	1.85580e+02	7.91000e+02	3.01199e+00	1.85500e+02
797	1.88644e+02	7.97000e+02	3.00893e+00	1.88500e+02
803	1.91694e+02	8.03000e+02	3.00537e+00	1.91500e+02
809	1.94743e+02	8.09000e+02	3.00121e+00	1.94500e+02
815	1.97815e+02	8.15000e+02	2.99666e+00	1.97500e+02
821	2.00870e+02	8.21000e+02	2.99180e+00	2.00500e+02
827	2.03925e+02	8.27000e+02	2.98664e+00	2.03500e+02
833	2.07004e+02	8.33000e+02	2.98145e+00	2.06500e+02
839	2.10066e+02	8.39000e+02	2.97632e+00	2.09500e+02
845	2.13120e+02	8.45000e+02	2.97139e+00	2.12500e+02
851	2.16185e+02	8.51000e+02	2.96682e+00	2.15500e+02
857	2.19247e+02	8.57000e+02	2.96281e+00	2.18500e+02
863	2.22295e+02	8.63000e+02	2.95919e+00	2.21500e+02
869	2.25343e+02	8.69000e+02	2.95588e+00	2.24500e+02
875	2.28334e+02	8.75000e+02	2.95282e+00	2.27500e+02
881	2.31345e+02	8.81000e+02	2.94987e+00	2.30500e+02
887	2.34363e+02	8.87000e+02	2.94712e+00	2.33500e+02
893	2.37391e+02	8.93000e+02	2.94463e+00	2.36500e+02
899	2.40422e+02	8.99000e+02	2.94241e+00	2.39500e+02
905	2.43458e+02	9.05000e+02	2.94029e+00	2.42500e+02
911	2.46506e+02	9.11000e+02	2.93817e+00	2.45500e+02
917	2.49522e+02	9.17000e+02	2.93619e+00	2.48500e+02
923	2.52559e+02	9.23000e+02	2.93437e+00	2.51500e+02
929	2.55603e+02	9.29000e+02	2.93253e+00	2.54500e+02
935	2.58621e+02	9.35000e+02	2.93064e+00	2.57500e+02
941	2.61651e+02	9.41000e+02	2.92870e+00	2.60500e+02
947	2.64680e+02	9.47000e+02	2.92681e+00	2.63500e+02
953	2.67703e+02	9.53000e+02	2.92499e+00	2.66500e+02
959	2.70739e+02	9.59000e+02	2.92297e+00	2.69500e+02
965	2.73792e+02	9.65000e+02	2.92079e+00	2.72500e+02
971	2.76844e+02	9.71000e+02	2.91830e+00	2.75500e+02
977	2.79914e+02	9.77000e+02	2.91543e+00	2.78500e+02
983	2.83002e+02	9.83000e+02	2.91239e+00	2.81500e+02
989	2.86080e+02	9.89000e+02	2.90897e+00	2.84500e+02
995	2.89106e+02	9.95000e+02	2.90512e+00	2.87500e+02
1001	2.92140e+02	1.00100e+03	2.90068e+00	2.90500e+02
1007	2.95154e+02	1.00700e+03	2.89549e+00	2.93500e+02
1013	2.98189e+02	1.01300e+03	2.88952e+00	2.96500e+02
1019	3.01212e+02	1.01900e+03	2.88277e+00	2.99500e+02
1025	3.04222e+02	1.02500e+03	2.87526e+00	3.02500e+02
1031	3.07246e+02	1.03100e+03	2.86709e+00	3.05500e+02
1037	3.10259e+02	1.03700e+03	2.85800e+00	3.08500e+02
1043	3.13272e+02	1.04300e+03	2.84842e+00	3.11500e+02
1049	3.16329e+02	1.04900e+03	2.83828e+00	3.14500e+02
1055	3.19350e+02	1.05500e+03	2.82796e+00	3.17500e+02
1061	3.22406e+02	1.06100e+03	2.81757e+00	3.20500e+02
1067	3.25503e+02	1.06700e+03	2.80725e+00	3.23500e+02
1073	3.28611e+02	1.07300e+03	2.79665e+00	3.26500e+02
1079	3.31702e+02	1.07900e+03	2.78525e+00	3.29500e+02
1085	3.34715e+02	1.08500e+03	2.77230e+00	3.32500e+02
1091	3.37725e+02	1.09100e+03	2.75731e+00	3.35500e+02
1097	3.40764e+02	1.09700e+03	2.73950e+00	3.38500e+02
1103	3.43798e+02	1.10300e+03	2.71835e+00	3.41500e+02
1109	3.46810e+02	1.10900e+03	2.69246e+00	3.44500e+02
1115	3.49802e+02	1.11500e+03	2.66129e+00	3.47500e+02
1121	3.52796e+02	1.12100e+03	2.62277e+00	3.50500e+02
1127	3.55762e+02	1.12700e+03	2.57642e+00	3.53500e+02
1133	3.58719e+02	1.13300e+03	2.52029e+00	3.56500e+02
1139	3.61679e+02	1.13900e+03	2.45416e+00	3.59500e+02
1145	3.64680e+02	1.14500e+03	2.37539e+00	3.62500e+02
1151	3.67639e+02	1.15100e+03	2.28511e+00	3.65500e+02
1157	3.70638e+02	1.15700e+03	2.18127e+00	3.68500e+02
1163	3.73639e+02	1.16300e+03	2.06525e+00	3.71500e+02
1169	3.76668e+02	1.16900e+03	1.93585e+00	3.74500e+02
1175	3.79545e+02	1.17500e+03	1.79614e+00	3.77500e+02
1181	3.82517e+02	1.18100e+03	1.64839e+00	3.80500e+02
1187	3.85518e+02	1.18700e+03	1.49513e+00	3.83500e+02
1193	3.88596e+02	1.19300e+03	1.33094e+00	3.86500e+02
1199	3.91694e+02	1.19900e+03	1.16150e+00	3.89500e+02
1205	3.94818e+02	1.20500e+03	9.97922e-01	3.92500e+02
1211	3.98037e+02	1.21100e+03	8.44402e-01	3.95500e+02
1217	4.01266e+02	1.21700e+03	7.04173e-01	3.98500e+02
1223	4.04355e+02	1.22300e+03	5.77604e-01	4.01500e+02
1229	4.07513e+02	1.22900e+03	4.67950e-01	4.04500e+02
1235	4.10566e+02	1.23500e+03	3.73408e-01	4.07500e+02
1241	4.13599e+02	1.24100e+03	2.95411e-01	4.10500e+02
1247	4.16670e+02	1.24700e+03	2.30420e-01	4.13500e+02
1253	4.19778e+02	1.25300e+03	1.78803e-01	4.16500e+02
1259	4.22823e+02	1.25900e+03	1.37253e-01	4.19500e+02
1265	4.25845e+02	1.26500e+03	1.05440e-01	4.22500e+02
1271	4.28805e+02	1.27100e+03	8.04168e-02	4.25500e+02
1277	4.31749e+02	1.27700e+03	6.16960e-02	4.28500e+02
1283	4.34742e+02	1.28300e+03	4.72370e-02	4.31500e+02
1289	4.37714e+02	1.28900e+03	3.65041e-02	4.34500e+02
1295	4.40652e+02	1.29500e+03	2.81157e-02	4.37500e+02
1301	4.43574e+02	1.30100e+03	2.15848e-02	4.40500e+02
1307	4.46564e+02	1.30700e+03	1.62732e-02	4.43500e+02
1313	4.49520e+02	1.31300e+03	1.22254e-02	4.46500e+02
1319	4.52485e+02	1.31900e+03	9.02744e-03	4.49500e+02
1325	4.55475e+02	1.32500e+03	6.85536e-03	4.52500e+02
1331	4.58449e+02	1.33100e+03	5.46344e-03	4.55500e+02
1337	4.61480e+02	1.33700e+03	4.74204e-03	4.58500e+02
1343	4.64456e+02	1.34300e+03	4.45676e-03	4.61500e+02
1349	4.67430e+02	1.34900e+03	4.24351e-03	4.64500e+02
1355	4.70343e+02	1.35500e+03	4.03054e-03	4.67500e+02
1361	4.73378e+02	1.36100e+03	3.81712e-03	4.70500e+02
1367	4.76284e+02	1.36700e+03	3.64184e-03	4.73500e+02
1373	4.79259e+02	1.37300e+03	3.57787e-03	4.76500e+02
1379	4.82201e+02	1.37900e+03	3.44512e-03	4.79500e+02
1385	4.85155e+02	1.38500e+03	3.28713e-03	4.82500e+02
1391	4.88048e+02	1.39100e+03	3.14248e-03	4.85500e+02
1397	4.90962e+02	1.39700e+03	3.13442e-03	4.88500e+02
1403	4.93891e+02	1.40300e+03	3.08671e-03	4.91500e+02
1409	4.96774e+02	1.40900e+03	2.82643e-03	4.94500e+02
1415	4.99694e+02	1.41500e+03	2.71427e-03	4.97500e+02
1421	5.02633e+02	1.42100e+03	2.70293e-03	5.00500e+02
1427	5.05559e+02	1.42700e+03	2.61238e-03	5.03500e+02
1433	5.08496e+02	1.43300e+03	2.56257e-03	5.06500e+02
1439	5.11428e+02	1.43900e+03	2.64138e-03	5.09500e+02
1445	5.14337e+02	1.44500e+03	2.50603e-03	5.12500e+02
1451	5.17261e+02	1.45100e+03	2.14660e-03	5.15500e+02
1457	5.20165e+02	1.45700e+03	2.35662e-03	5.18500e+02
1463	5.23070e+02	1.46300e+03	2.67397e-03	5.21500e+02
1469	5.26031e+02	1.46900e+03	2.52241e-03	5.24500e+02
1475	5.29117e+02	1.47500e+03	2.43680e-03	5.27500e+02
1481	5.31921e+02	1.48100e+03	2.43651e-03	5.30500e+02
1487	5.34668e+02	1.48700e+03	2.37612e-03	5.33500e+02
1493	5.37461e+02	1.49300e+03	2.37723e-03	5.36500e+02
1499	5.40380e+02	1.49900e+03	2.28860e-03	5.39500e+02
1505	5.43224e+02	1.50500e+03	2.22673e-03	5.42500e+02
1511	5.46021e+02	1.51100e+03	2.29712e-03	5.45500e+02
1517	5.48925e+02	1.51700e+03	2.26171e-03	5.48500e+02
1523	5.51875e+02	1.52300e+03	2.21600e-03	5.51500e+02
1529	5.54794e+02	1.52900e+03	2.12040e-03	5.54500e+02
1535	5.57707e+02	1.53500e+03	1.73221e-03	5.57500e+02
1541	5.60820e+02	1.54100e+03	1.97883e-03	5.60500e+02
1547	5.63756e+02	1.54700e+03	2.10210e-03	5.63500e+02
1553	5.66562e+02	1.55300e+03	2.03875e-03	5.66500e+02
1559	5.69468e+02	1.55900e+03	2.07888e-03	5.69500e+02
1565	5.72378e+02	1.56500e+03	2.03104e-03	5.72500e+02
1571	5.75233e+02	1.57100e+03	1.98345e-03	5.75500e+02
1577	5.78254e+02	1.57700e+03	2.00614e-03	5.78500e+02
1583	5.81359e+02	1.58300e+03	2.07448e-03	5.81500e+02
1589	5.84385e+02	1.58900e+03	2.07025e-03	5.84500e+02
1595	5.87813e+02	1.59500e+03	2.09294e-03	5.87500e+02
1601	5.90553e+02	1.60100e+03	2.04365e-03	5.90500e+02
1607	5.93456e+02	1.60700e+03	1.93726e-03	5.93500e+02
1613	5.96360e+02	1.61300e+03	1.75818e-03	5.96500e+02
1619	5.99306e+02	1.61900e+03	1.71141e-03	5.99500e+02
1625	6.02239e+02	1.62500e+03	1.65368e-03	6.02500e+02
1631	6.05233e+02	1.63100e+03	1.60588e-03	6.05500e+02
1637	6.08184e+02	1.63700e+03	1.59665e-03	6.08500e+02
1643	6.11123e+02	1.64300e+03	1.56781e-03	6.11500e+02
1649	6.14096e+02	1.64900e+03	1.54803e-03	6.14500e+02
1655	6.17096e+02	1.65500e+03	1.54318e-03	6.17500e+02
1661	6.20219e+02	1.66100e+03	1.49347e-03	6.20500e+02
1667	6.23453e+02	1.66700e+03	1.34778e-03	6.23500e+02
1673	6.26968e+02	1.67300e+03	1.31888e-03	6.26500e+02
1679	6.30032e+02	1.67900e+03	1.24634e-03	6.29500e+02
1685	6.32906e+02	1.68500e+03	1.14987e-03	6.32500e+02
1691	6.35911e+02	1.69100e+03	1.11288e-03	6.35500e+02
1697	6.38854e+02	1.69700e+03	1.20310e-03	6.38500e+02
1703	6.41822e+02	1.70300e+03	1.23621e-03	6.41500e+02
1709	6.44849e+02	1.70900e+03	1.11648e-03	6.44500e+02
1715	6.47897e+02	1.71500e+03	1.02834e-03	6.47500e+02
1721	6.50943e+02	1.72100e+03	7.69845e-04	6.50500e+02
1727	6.54012e+02	1.72700e+03	7.43986e-04	6.53500e+02
1733	6.57016e+02	1.73300e+03	1.32352e-03	6.56500e+02
1739	6.60047e+02	1.73900e+03	1.43343e-03	6.59500e+02
1745	6.63105e+02	1.74500e+03	1.11648e-03	6.62500e+02
1751	6.66187e+02	1.75100e+03	9.12594e-04	6.65500e+02
1757	6.69232e+02	1.75700e+03	1.03502e-03	6.68500e+02
1763	6.72269e+02	1.76300e+03	1.13223e-03	6.71500e+02
1769	6.75283e+02	1.76900e+03	1.02916e-03	6.74500e+02
1775	6.78306e+02	1.77500e+03	1.06401e-03	6.77500e+02
1781	6.81341e+02	1.78100e+03	9.64350e-04	6.80500e+02
1787	6.84424e+02	1.78700e+03	7.86930e-04	6.83500e+02
1793	6.87475e+02	1.79300e+03	6.69953e-04	6.86500e+02
1799	6.89458e+02	1.79900e+03	1.20584e-03	6.89500e+02
1805	6.91485e+02	1.80500e+03	1.34271e-03	6.92500e+02
1811	6.94073e+02	1.81100e+03	1.14462e-03	6.95500e+02
1817	6.94776e+02	1.81700e+03	1.15127e-03	6.98500e+02
1820	6.95329e+02	1.82000e+03	1.18839e-03	7.00000e+02