Folder: Pyrolysis_BESKID/Experiments/TUBS/tga_nonisotherm (part 36)

File: tga_dynamic_n2_dyn60_piece_1mg_r3.txt
index	ts	t	weight	tr
[#]	[°C]	[s]	[mg]	[°C]
643	1.30560e+02	6.43000e+02	9.85562e-01	1.33000e+02
647	1.34611e+02	6.47000e+02	9.85474e-01	1.37000e+02
651	1.38631e+02	6.51000e+02	9.85556e-01	1.41000e+02
655	1.42649e+02	6.55000e+02	9.85609e-01	1.45000e+02
659	1.46654e+02	6.59000e+02	9.85559e-01	1.49000e+02
663	1.50670e+02	6.63000e+02	9.85478e-01	1.53000e+02
667	1.54650e+02	6.67000e+02	9.85410e-01	1.57000e+02
671	1.58646e+02	6.71000e+02	9.85350e-01	1.61000e+02
675	1.62627e+02	6.75000e+02	9.85265e-01	1.65000e+02
679	1.66605e+02	6.79000e+02	9.85204e-01	1.69000e+02
683	1.70585e+02	6.83000e+02	9.85182e-01	1.73000e+02
687	1.74590e+02	6.87000e+02	9.85148e-01	1.77000e+02
691	1.78580e+02	6.91000e+02	9.85073e-01	1.81000e+02
695	1.82564e+02	6.95000e+02	9.84984e-01	1.85000e+02
699	1.86550e+02	6.99000e+02	9.84945e-01	1.89000e+02
703	1.90547e+02	7.03000e+02	9.84804e-01	1.93000e+02
707	1.94542e+02	7.07000e+02	9.84476e-01	1.97000e+02
711	1.98542e+02	7.11000e+02	9.84134e-01	2.01000e+02
715	2.02545e+02	7.15000e+02	9.83815e-01	2.05000e+02
719	2.06543e+02	7.19000e+02	9.83332e-01	2.09000e+02
723	2.10544e+02	7.23000e+02	9.82682e-01	2.13000e+02
727	2.14563e+02	7.27000e+02	9.81931e-01	2.17000e+02
731	2.18588e+02	7.31000e+02	9.81085e-01	2.21000e+02
735	2.22611e+02	7.35000e+02	9.80198e-01	2.25000e+02
739	2.26635e+02	7.39000e+02	9.79250e-01	2.29000e+02
743	2.30628e+02	7.43000e+02	9.78255e-01	2.33000e+02
747	2.34658e+02	7.47000e+02	9.77242e-01	2.37000e+02
751	2.38662e+02	7.51000e+02	9.76217e-01	2.41000e+02
755	2.42684e+02	7.55000e+02	9.75184e-01	2.45000e+02
759	2.46680e+02	7.59000e+02	9.74124e-01	2.49000e+02
763	2.50633e+02	7.63000e+02	9.73040e-01	2.53000e+02
767	2.54623e+02	7.67000e+02	9.71958e-01	2.57000e+02
771	2.58631e+02	7.71000e+02	9.70832e-01	2.61000e+02
775	2.62678e+02	7.75000e+02	9.69643e-01	2.65000e+02
779	2.66737e+02	7.79000e+02	9.68347e-01	2.69000e+02
783	2.70880e+02	7.83000e+02	9.66992e-01	2.73000e+02
787	2.75005e+02	7.87000e+02	9.65679e-01	2.77000e+02
791	2.79057e+02	7.91000e+02	9.64327e-01	2.81000e+02
795	2.83132e+02	7.95000e+02	9.62918e-01	2.85000e+02
799	2.87193e+02	7.99000e+02	9.61405e-01	2.89000e+02
803	2.91226e+02	8.03000e+02	9.59716e-01	2.93000e+02
807	2.95273e+02	8.07000e+02	9.57882e-01	2.97000e+02
811	2.99621e+02	8.11000e+02	9.55955e-01	3.01000e+02
815	3.03890e+02	8.15000e+02	9.53957e-01	3.05000e+02
819	3.08006e+02	8.19000e+02	9.51759e-01	3.09000e+02
823	3.12039e+02	8.23000e+02	9.49227e-01	3.13000e+02
827	3.16064e+02	8.27000e+02	9.46362e-01	3.17000e+02
831	3.20206e+02	8.31000e+02	9.43147e-01	3.21000e+02
835	3.24316e+02	8.35000e+02	9.39532e-01	3.25000e+02
839	3.28331e+02	8.39000e+02	9.35620e-01	3.29000e+02
843	3.32354e+02	8.43000e+02	9.31579e-01	3.33000e+02
847	3.36387e+02	8.47000e+02	9.27350e-01	3.37000e+02
851	3.40446e+02	8.51000e+02	9.22814e-01	3.41000e+02
855	3.44468e+02	8.55000e+02	9.17790e-01	3.45000e+02
859	3.48567e+02	8.59000e+02	9.11904e-01	3.49000e+02
863	3.52636e+02	8.63000e+02	9.04682e-01	3.53000e+02
867	3.56702e+02	8.67000e+02	8.95689e-01	3.57000e+02
871	3.60922e+02	8.71000e+02	8.84400e-01	3.61000e+02
875	3.65185e+02	8.75000e+02	8.69873e-01	3.65000e+02
879	3.69316e+02	8.79000e+02	8.50473e-01	3.69000e+02
883	3.73239e+02	8.83000e+02	8.24346e-01	3.73000e+02
887	3.77117e+02	8.87000e+02	7.90610e-01	3.77000e+02
891	3.81139e+02	8.91000e+02	7.48662e-01	3.81000e+02
895	3.85166e+02	8.95000e+02	6.98490e-01	3.85000e+02
899	3.89146e+02	8.99000e+02	6.41372e-01	3.89000e+02
903	3.93076e+02	9.03000e+02	5.78990e-01	3.93000e+02
907	3.97099e+02	9.07000e+02	5.12905e-01	3.97000e+02
911	4.01106e+02	9.11000e+02	4.44841e-01	4.01000e+02
915	4.05145e+02	9.15000e+02	3.76298e-01	4.05000e+02
919	4.09256e+02	9.19000e+02	3.08119e-01	4.09000e+02
923	4.13282e+02	9.23000e+02	2.42067e-01	4.13000e+02
927	4.17355e+02	9.27000e+02	1.81505e-01	4.17000e+02
931	4.21271e+02	9.31000e+02	1.29790e-01	4.21000e+02
935	4.25444e+02	9.35000e+02	8.83383e-02	4.25000e+02
939	4.29329e+02	9.39000e+02	5.66578e-02	4.29000e+02
943	4.33072e+02	9.43000e+02	3.34689e-02	4.33000e+02
947	4.36938e+02	9.47000e+02	1.73337e-02	4.37000e+02
951	4.40891e+02	9.51000e+02	6.73227e-03	4.41000e+02
955	4.44681e+02	9.55000e+02	7.30105e-05	4.45000e+02
959	4.48460e+02	9.59000e+02	-4.04806e-03	4.49000e+02
963	4.52655e+02	9.63000e+02	-6.64679e-03	4.53000e+02
967	4.56807e+02	9.67000e+02	-8.34373e-03	4.57000e+02
971	4.61491e+02	9.71000e+02	-9.50691e-03	4.61000e+02
975	4.65436e+02	9.75000e+02	-1.01292e-02	4.65000e+02
979	4.69318e+02	9.79000e+02	-1.03902e-02	4.69000e+02
983	4.73262e+02	9.83000e+02	-1.06472e-02	4.73000e+02
987	4.77023e+02	9.87000e+02	-1.08699e-02	4.77000e+02
991	4.80787e+02	9.91000e+02	-1.10374e-02	4.81000e+02
995	4.84681e+02	9.95000e+02	-1.11747e-02	4.85000e+02
999	4.88586e+02	9.99000e+02	-1.12448e-02	4.89000e+02
1003	4.92524e+02	1.00300e+03	-1.12095e-02	4.93000e+02
1007	4.96397e+02	1.00700e+03	-1.09604e-02	4.97000e+02
1011	5.00378e+02	1.01100e+03	-1.11981e-02	5.01000e+02
1015	5.04265e+02	1.01500e+03	-1.18828e-02	5.05000e+02
1019	5.08326e+02	1.01900e+03	-1.21043e-02	5.09000e+02
1023	5.11992e+02	1.02300e+03	-1.19365e-02	5.13000e+02
1027	5.15780e+02	1.02700e+03	-1.17317e-02	5.17000e+02
1031	5.19652e+02	1.03100e+03	-1.16651e-02	5.21000e+02
1035	5.23622e+02	1.03500e+03	-1.16862e-02	5.25000e+02
1039	5.27461e+02	1.03900e+03	-1.17756e-02	5.29000e+02
1043	5.31309e+02	1.04300e+03	-1.18858e-02	5.33000e+02
1047	5.35199e+02	1.04700e+03	-1.19393e-02	5.37000e+02
1051	5.39132e+02	1.05100e+03	-1.19319e-02	5.41000e+02
1055	5.43018e+02	1.05500e+03	-1.19884e-02	5.45000e+02
1059	5.47001e+02	1.05900e+03	-1.20923e-02	5.49000e+02
1063	5.50858e+02	1.06300e+03	-1.20540e-02	5.53000e+02
1067	5.54445e+02	1.06700e+03	-1.19148e-02	5.57000e+02
1071	5.58175e+02	1.07100e+03	-1.18662e-02	5.61000e+02
1075	5.62075e+02	1.07500e+03	-1.19282e-02	5.65000e+02
1079	5.66018e+02	1.07900e+03	-1.19780e-02	5.69000e+02
1083	5.69996e+02	1.08300e+03	-1.19556e-02	5.73000e+02
1087	5.73919e+02	1.08700e+03	-1.19439e-02	5.77000e+02
1091	5.77869e+02	1.09100e+03	-1.19992e-02	5.81000e+02
1095	5.81864e+02	1.09500e+03	-1.20705e-02	5.85000e+02
1099	5.85848e+02	1.09900e+03	-1.21232e-02	5.89000e+02
1103	5.89789e+02	1.10300e+03	-1.21163e-02	5.93000e+02
1107	5.93669e+02	1.10700e+03	-1.20827e-02	5.97000e+02
1111	5.97601e+02	1.11100e+03	-1.20947e-02	6.01000e+02
1115	6.01557e+02	1.11500e+03	-1.21290e-02	6.05000e+02
1119	6.05522e+02	1.11900e+03	-1.20612e-02	6.09000e+02
1123	6.09242e+02	1.12300e+03	-1.20180e-02	6.13000e+02
1127	6.13100e+02	1.12700e+03	-1.20869e-02	6.17000e+02
1131	6.16977e+02	1.13100e+03	-1.21271e-02	6.21000e+02
1135	6.20889e+02	1.13500e+03	-1.21313e-02	6.25000e+02
1139	6.24803e+02	1.13900e+03	-1.21800e-02	6.29000e+02
1143	6.28713e+02	1.14300e+03	-1.22784e-02	6.33000e+02
1147	6.32631e+02	1.14700e+03	-1.22669e-02	6.37000e+02
1151	6.36554e+02	1.15100e+03	-1.21961e-02	6.41000e+02
1155	6.40493e+02	1.15500e+03	-1.22135e-02	6.45000e+02
1159	6.44432e+02	1.15900e+03	-1.22160e-02	6.49000e+02
1163	6.48403e+02	1.16300e+03	-1.22199e-02	6.53000e+02
1167	6.52381e+02	1.16700e+03	-1.22575e-02	6.57000e+02
1171	6.56365e+02	1.17100e+03	-1.22660e-02	6.61000e+02
1175	6.60315e+02	1.17500e+03	-1.22926e-02	6.65000e+02
1179	6.64260e+02	1.17900e+03	-1.23244e-02	6.69000e+02
1183	6.68245e+02	1.18300e+03	-1.23899e-02	6.73000e+02
1187	6.70746e+02	1.18700e+03	-1.24517e-02	6.77000e+02
1191	6.73707e+02	1.19100e+03	-1.22122e-02	6.81000e+02
1195	6.76336e+02	1.19500e+03	-1.19268e-02	6.85000e+02
1199	6.78591e+02	1.19900e+03	-1.20108e-02	6.89000e+02
1203	6.80649e+02	1.20300e+03	-1.21604e-02	6.93000e+02
1207	6.82501e+02	1.20700e+03	-1.22062e-02	6.97000e+02
1210	6.83757e+02	1.21000e+03	-1.22425e-02	7.00000e+02

File: tga_dynamic_n2_dyn60_piece_2mg_r1.txt
index	ts	t	weight	tr
[#]	[°C]	[s]	[mg]	[°C]
643	1.29472e+02	6.43000e+02	1.96607e+00	1.33000e+02
646	1.32423e+02	6.46000e+02	1.96599e+00	1.36000e+02
649	1.35350e+02	6.49000e+02	1.96594e+00	1.39000e+02
652	1.38309e+02	6.52000e+02	1.96591e+00	1.42000e+02
655	1.41256e+02	6.55000e+02	1.96588e+00	1.45000e+02
658	1.44191e+02	6.58000e+02	1.96585e+00	1.48000e+02
661	1.47135e+02	6.61000e+02	1.96584e+00	1.51000e+02
664	1.50089e+02	6.64000e+02	1.96582e+00	1.54000e+02
667	1.53031e+02	6.67000e+02	1.96575e+00	1.57000e+02
670	1.55978e+02	6.70000e+02	1.96566e+00	1.60000e+02
673	1.58922e+02	6.73000e+02	1.96561e+00	1.63000e+02
676	1.61860e+02	6.76000e+02	1.96555e+00	1.66000e+02
679	1.64812e+02	6.79000e+02	1.96548e+00	1.69000e+02
682	1.67761e+02	6.82000e+02	1.96539e+00	1.72000e+02
685	1.70713e+02	6.85000e+02	1.96532e+00	1.75000e+02
688	1.73675e+02	6.88000e+02	1.96526e+00	1.78000e+02
691	1.76627e+02	6.91000e+02	1.96514e+00	1.81000e+02
694	1.79586e+02	6.94000e+02	1.96495e+00	1.84000e+02
697	1.82535e+02	6.97000e+02	1.96470e+00	1.87000e+02
700	1.85498e+02	7.00000e+02	1.96445e+00	1.90000e+02
703	1.88472e+02	7.03000e+02	1.96420e+00	1.93000e+02
706	1.91428e+02	7.06000e+02	1.96393e+00	1.96000e+02
709	1.94394e+02	7.09000e+02	1.96360e+00	1.99000e+02
712	1.97373e+02	7.12000e+02	1.96320e+00	2.02000e+02
715	2.00345e+02	7.15000e+02	1.96273e+00	2.05000e+02
718	2.03334e+02	7.18000e+02	1.96213e+00	2.08000e+02
721	2.06298e+02	7.21000e+02	1.96144e+00	2.11000e+02
724	2.09288e+02	7.24000e+02	1.96070e+00	2.14000e+02
727	2.12257e+02	7.27000e+02	1.95994e+00	2.17000e+02
730	2.15259e+02	7.30000e+02	1.95914e+00	2.20000e+02
733	2.18252e+02	7.33000e+02	1.95828e+00	2.23000e+02
736	2.21250e+02	7.36000e+02	1.95735e+00	2.26000e+02
739	2.24239e+02	7.39000e+02	1.95635e+00	2.29000e+02
742	2.27234e+02	7.42000e+02	1.95527e+00	2.32000e+02
745	2.30229e+02	7.45000e+02	1.95419e+00	2.35000e+02
748	2.33236e+02	7.48000e+02	1.95319e+00	2.38000e+02
751	2.36221e+02	7.51000e+02	1.95221e+00	2.41000e+02
754	2.39239e+02	7.54000e+02	1.95119e+00	2.44000e+02
757	2.42239e+02	7.57000e+02	1.95008e+00	2.47000e+02
760	2.45249e+02	7.60000e+02	1.94892e+00	2.50000e+02
763	2.48251e+02	7.63000e+02	1.94774e+00	2.53000e+02
766	2.51254e+02	7.66000e+02	1.94654e+00	2.56000e+02
769	2.54260e+02	7.69000e+02	1.94534e+00	2.59000e+02
772	2.57261e+02	7.72000e+02	1.94415e+00	2.62000e+02
775	2.60278e+02	7.75000e+02	1.94292e+00	2.65000e+02
778	2.63294e+02	7.78000e+02	1.94158e+00	2.68000e+02
781	2.66310e+02	7.81000e+02	1.94016e+00	2.71000e+02
784	2.69319e+02	7.84000e+02	1.93869e+00	2.74000e+02
787	2.72331e+02	7.87000e+02	1.93717e+00	2.77000e+02
790	2.75344e+02	7.90000e+02	1.93558e+00	2.80000e+02
793	2.78362e+02	7.93000e+02	1.93397e+00	2.83000e+02
796	2.81372e+02	7.96000e+02	1.93231e+00	2.86000e+02
799	2.84392e+02	7.99000e+02	1.93057e+00	2.89000e+02
802	2.87407e+02	8.02000e+02	1.92871e+00	2.92000e+02
805	2.90421e+02	8.05000e+02	1.92672e+00	2.95000e+02
808	2.93426e+02	8.08000e+02	1.92457e+00	2.98000e+02
811	2.96443e+02	8.11000e+02	1.92223e+00	3.01000e+02
814	2.99466e+02	8.14000e+02	1.91966e+00	3.04000e+02
817	3.02477e+02	8.17000e+02	1.91692e+00	3.07000e+02
820	3.05492e+02	8.20000e+02	1.91398e+00	3.10000e+02
823	3.08501e+02	8.23000e+02	1.91080e+00	3.13000e+02
826	3.11514e+02	8.26000e+02	1.90723e+00	3.16000e+02
829	3.14523e+02	8.29000e+02	1.90334e+00	3.19000e+02
832	3.17537e+02	8.32000e+02	1.89916e+00	3.22000e+02
835	3.20540e+02	8.35000e+02	1.89473e+00	3.25000e+02
838	3.23568e+02	8.38000e+02	1.88996e+00	3.28000e+02
841	3.26574e+02	8.41000e+02	1.88492e+00	3.31000e+02
844	3.29587e+02	8.44000e+02	1.87965e+00	3.34000e+02
847	3.32597e+02	8.47000e+02	1.87414e+00	3.37000e+02
850	3.35602e+02	8.50000e+02	1.86823e+00	3.40000e+02
853	3.38607e+02	8.53000e+02	1.86171e+00	3.43000e+02
856	3.41617e+02	8.56000e+02	1.85421e+00	3.46000e+02
859	3.44612e+02	8.59000e+02	1.84578e+00	3.49000e+02
862	3.47605e+02	8.62000e+02	1.83569e+00	3.52000e+02
865	3.50592e+02	8.65000e+02	1.82361e+00	3.55000e+02
868	3.53586e+02	8.68000e+02	1.80878e+00	3.58000e+02
871	3.56570e+02	8.71000e+02	1.79123e+00	3.61000e+02
874	3.59552e+02	8.74000e+02	1.76910e+00	3.64000e+02
877	3.62518e+02	8.77000e+02	1.74254e+00	3.67000e+02
880	3.65501e+02	8.80000e+02	1.71093e+00	3.70000e+02
883	3.68455e+02	8.83000e+02	1.67442e+00	3.73000e+02
886	3.71420e+02	8.86000e+02	1.63119e+00	3.76000e+02
889	3.74372e+02	8.89000e+02	1.57975e+00	3.79000e+02
892	3.77313e+02	8.92000e+02	1.51975e+00	3.82000e+02
895	3.80271e+02	8.95000e+02	1.45311e+00	3.85000e+02
898	3.83206e+02	8.98000e+02	1.37914e+00	3.88000e+02
901	3.86167e+02	9.01000e+02	1.29990e+00	3.91000e+02
904	3.89118e+02	9.04000e+02	1.21661e+00	3.94000e+02
907	3.92064e+02	9.07000e+02	1.13036e+00	3.97000e+02
910	3.95025e+02	9.10000e+02	1.04062e+00	4.00000e+02
913	3.97963e+02	9.13000e+02	9.49414e-01	4.03000e+02
916	4.00925e+02	9.16000e+02	8.57284e-01	4.06000e+02
919	4.03888e+02	9.19000e+02	7.64186e-01	4.09000e+02
922	4.06867e+02	9.22000e+02	6.69328e-01	4.12000e+02
925	4.09860e+02	9.25000e+02	5.73038e-01	4.15000e+02
928	4.12875e+02	9.28000e+02	4.77089e-01	4.18000e+02
931	4.15894e+02	9.31000e+02	3.84276e-01	4.21000e+02
934	4.18943e+02	9.34000e+02	2.97101e-01	4.24000e+02
937	4.21999e+02	9.37000e+02	2.23040e-01	4.27000e+02
940	4.25057e+02	9.40000e+02	1.64028e-01	4.30000e+02
943	4.28095e+02	9.43000e+02	1.16485e-01	4.33000e+02
946	4.31129e+02	9.46000e+02	8.22588e-02	4.36000e+02
949	4.34157e+02	9.49000e+02	5.72971e-02	4.39000e+02
952	4.37191e+02	9.52000e+02	4.06311e-02	4.42000e+02
955	4.40203e+02	9.55000e+02	2.76166e-02	4.45000e+02
958	4.43215e+02	9.58000e+02	1.94550e-02	4.48000e+02
961	4.46213e+02	9.61000e+02	1.36212e-02	4.51000e+02
964	4.49212e+02	9.64000e+02	9.40887e-03	4.54000e+02
967	4.52193e+02	9.67000e+02	6.23726e-03	4.57000e+02
970	4.55192e+02	9.70000e+02	4.17107e-03	4.60000e+02
973	4.58158e+02	9.73000e+02	2.59647e-03	4.63000e+02
976	4.61135e+02	9.76000e+02	1.46036e-03	4.66000e+02
979	4.64116e+02	9.79000e+02	6.17847e-04	4.69000e+02
982	4.67092e+02	9.82000e+02	1.17685e-04	4.72000e+02
985	4.70068e+02	9.85000e+02	-2.30026e-04	4.75000e+02
988	4.73032e+02	9.88000e+02	-4.70634e-04	4.78000e+02
991	4.76009e+02	9.91000e+02	-6.63342e-04	4.81000e+02
994	4.78973e+02	9.94000e+02	-8.35068e-04	4.84000e+02
997	4.81952e+02	9.97000e+02	-1.01202e-03	4.87000e+02
1000	4.84923e+02	1.00000e+03	-1.17154e-03	4.90000e+02
1003	4.87885e+02	1.00300e+03	-1.30551e-03	4.93000e+02
1006	4.90848e+02	1.00600e+03	-1.36202e-03	4.96000e+02
1009	4.93822e+02	1.00900e+03	-1.35007e-03	4.99000e+02
1012	4.96781e+02	1.01200e+03	-1.35006e-03	5.02000e+02
1015	4.99750e+02	1.01500e+03	-1.37496e-03	5.05000e+02
1018	5.02728e+02	1.01800e+03	-1.44055e-03	5.08000e+02
1021	5.05689e+02	1.02100e+03	-1.51267e-03	5.11000e+02
1024	5.08654e+02	1.02400e+03	-1.57586e-03	5.14000e+02
1027	5.11618e+02	1.02700e+03	-1.64665e-03	5.17000e+02
1030	5.14581e+02	1.03000e+03	-1.72841e-03	5.20000e+02
1033	5.17559e+02	1.03300e+03	-1.80312e-03	5.23000e+02
1036	5.20521e+02	1.03600e+03	-1.85866e-03	5.26000e+02
1039	5.23485e+02	1.03900e+03	-1.90273e-03	5.29000e+02
1042	5.26450e+02	1.04200e+03	-1.94959e-03	5.32000e+02
1045	5.29420e+02	1.04500e+03	-2.01473e-03	5.35000e+02
1048	5.32389e+02	1.04800e+03	-2.05076e-03	5.38000e+02
1051	5.35351e+02	1.05100e+03	-2.04705e-03	5.41000e+02
1054	5.38319e+02	1.05400e+03	-2.02721e-03	5.44000e+02
1057	5.41288e+02	1.05700e+03	-2.06994e-03	5.47000e+02
1060	5.44251e+02	1.06000e+03	-2.14300e-03	5.50000e+02
1063	5.47233e+02	1.06300e+03	-2.19560e-03	5.53000e+02
1066	5.50196e+02	1.06600e+03	-2.20078e-03	5.56000e+02
1069	5.53167e+02	1.06900e+03	-2.19464e-03	5.59000e+02
1072	5.56134e+02	1.07200e+03	-2.19956e-03	5.62000e+02
1075	5.59113e+02	1.07500e+03	-2.19693e-03	5.65000e+02
1078	5.62072e+02	1.07800e+03	-2.17128e-03	5.68000e+02
1081	5.65048e+02	1.08100e+03	-2.14161e-03	5.71000e+02
1084	5.68028e+02	1.08400e+03	-2.13670e-03	5.74000e+02
1087	5.70988e+02	1.08700e+03	-2.16784e-03	5.77000e+02
1090	5.73961e+02	1.09000e+03	-2.25683e-03	5.80000e+02
1093	5.76926e+02	1.09300e+03	-2.34935e-03	5.83000e+02
1096	5.79904e+02	1.09600e+03	-2.41751e-03	5.86000e+02
1099	5.82872e+02	1.09900e+03	-2.47709e-03	5.89000e+02
1102	5.85845e+02	1.10200e+03	-2.51406e-03	5.92000e+02
1105	5.88817e+02	1.10500e+03	-2.53585e-03	5.95000e+02
1108	5.91787e+02	1.10800e+03	-2.56052e-03	5.98000e+02
1111	5.94760e+02	1.11100e+03	-2.56297e-03	6.01000e+02
1114	5.97739e+02	1.11400e+03	-2.54528e-03	6.04000e+02
1117	6.00708e+02	1.11700e+03	-2.54521e-03	6.07000e+02
1120	6.03674e+02	1.12000e+03	-2.56712e-03	6.10000e+02
1123	6.06646e+02	1.12300e+03	-2.59167e-03	6.13000e+02
1126	6.09622e+02	1.12600e+03	-2.58994e-03	6.16000e+02
1129	6.12591e+02	1.12900e+03	-2.57507e-03	6.19000e+02
1132	6.15561e+02	1.13200e+03	-2.60489e-03	6.22000e+02
1135	6.18542e+02	1.13500e+03	-2.64505e-03	6.25000e+02
1138	6.21503e+02	1.13800e+03	-2.66699e-03	6.28000e+02
1141	6.24474e+02	1.14100e+03	-2.66136e-03	6.31000e+02
1144	6.27442e+02	1.14400e+03	-2.66573e-03	6.34000e+02
1147	6.30419e+02	1.14700e+03	-2.67840e-03	6.37000e+02
1150	6.33394e+02	1.15000e+03	-2.69590e-03	6.40000e+02
1153	6.36381e+02	1.15300e+03	-2.71443e-03	6.43000e+02
1156	6.39345e+02	1.15600e+03	-2.72985e-03	6.46000e+02
1159	6.42328e+02	1.15900e+03	-2.73458e-03	6.49000e+02
1162	6.45313e+02	1.16200e+03	-2.72969e-03	6.52000e+02
1165	6.48289e+02	1.16500e+03	-2.74090e-03	6.55000e+02
1168	6.51273e+02	1.16800e+03	-2.75711e-03	6.58000e+02
1171	6.54250e+02	1.17100e+03	-2.74536e-03	6.61000e+02
1174	6.57246e+02	1.17400e+03	-2.69804e-03	6.64000e+02
1177	6.60232e+02	1.17700e+03	-2.66547e-03	6.67000e+02
1180	6.63214e+02	1.18000e+03	-2.66970e-03	6.70000e+02
1183	6.66200e+02	1.18300e+03	-2.69923e-03	6.73000e+02
1186	6.67841e+02	1.18600e+03	-2.69964e-03	6.76000e+02
1189	6.69887e+02	1.18900e+03	-2.59280e-03	6.79000e+02
1192	6.71990e+02	1.19200e+03	-2.51067e-03	6.82000e+02
1195	6.73878e+02	1.19500e+03	-2.53459e-03	6.85000e+02
1198	6.75596e+02	1.19800e+03	-2.68680e-03	6.88000e+02
1201	6.77185e+02	1.20100e+03	-2.80483e-03	6.91000e+02
1204	6.78643e+02	1.20400e+03	-2.85094e-03	6.94000e+02
1207	6.79959e+02	1.20700e+03	-2.85357e-03	6.97000e+02
1210	6.81178e+02	1.21000e+03	-2.82365e-03	7.00000e+02