Folder: Pyrolysis_BESKID/Experiments/TUBS/tga_nonisotherm (part 20)

File: tga_dynamic_n2_dyn20_powder_3mg_r2.txt
index	ts	t	weight	tr
[#]	[°C]	[s]	[mg]	[°C]
723	1.30060e+02	7.23000e+02	2.95484e+00	1.31000e+02
733	1.33379e+02	7.33000e+02	2.95457e+00	1.34333e+02
743	1.36698e+02	7.43000e+02	2.95405e+00	1.37667e+02
753	1.40035e+02	7.53000e+02	2.95326e+00	1.41000e+02
763	1.43370e+02	7.63000e+02	2.95250e+00	1.44333e+02
773	1.46722e+02	7.73000e+02	2.95146e+00	1.47667e+02
783	1.50078e+02	7.83000e+02	2.95008e+00	1.51000e+02
793	1.53424e+02	7.93000e+02	2.94851e+00	1.54333e+02
803	1.56799e+02	8.03000e+02	2.94678e+00	1.57667e+02
813	1.60170e+02	8.13000e+02	2.94475e+00	1.61000e+02
823	1.63563e+02	8.23000e+02	2.94271e+00	1.64333e+02
833	1.66934e+02	8.33000e+02	2.94022e+00	1.67667e+02
843	1.70341e+02	8.43000e+02	2.93713e+00	1.71000e+02
853	1.73756e+02	8.53000e+02	2.93286e+00	1.74333e+02
863	1.77181e+02	8.63000e+02	2.92701e+00	1.77667e+02
873	1.80602e+02	8.73000e+02	2.91941e+00	1.81000e+02
883	1.83990e+02	8.83000e+02	2.90997e+00	1.84333e+02
893	1.87369e+02	8.93000e+02	2.89896e+00	1.87667e+02
903	1.90764e+02	9.03000e+02	2.88708e+00	1.91000e+02
913	1.94150e+02	9.13000e+02	2.87540e+00	1.94333e+02
923	1.97557e+02	9.23000e+02	2.86472e+00	1.97667e+02
933	2.00962e+02	9.33000e+02	2.85584e+00	2.01000e+02
943	2.04354e+02	9.43000e+02	2.84904e+00	2.04333e+02
953	2.07754e+02	9.53000e+02	2.84416e+00	2.07667e+02
963	2.11136e+02	9.63000e+02	2.84065e+00	2.11000e+02
973	2.14513e+02	9.73000e+02	2.83790e+00	2.14333e+02
983	2.17901e+02	9.83000e+02	2.83556e+00	2.17667e+02
993	2.21270e+02	9.93000e+02	2.83328e+00	2.21000e+02
1003	2.24664e+02	1.00300e+03	2.83079e+00	2.24333e+02
1013	2.28051e+02	1.01300e+03	2.82819e+00	2.27667e+02
1023	2.31425e+02	1.02300e+03	2.82592e+00	2.31000e+02
1033	2.34776e+02	1.03300e+03	2.82380e+00	2.34333e+02
1043	2.38129e+02	1.04300e+03	2.82182e+00	2.37667e+02
1053	2.41433e+02	1.05300e+03	2.82008e+00	2.41000e+02
1063	2.44816e+02	1.06300e+03	2.81846e+00	2.44333e+02
1073	2.48202e+02	1.07300e+03	2.81706e+00	2.47667e+02
1083	2.51635e+02	1.08300e+03	2.81576e+00	2.51000e+02
1093	2.55113e+02	1.09300e+03	2.81433e+00	2.54333e+02
1103	2.58539e+02	1.10300e+03	2.81302e+00	2.57667e+02
1113	2.61923e+02	1.11300e+03	2.81150e+00	2.61000e+02
1123	2.65335e+02	1.12300e+03	2.81000e+00	2.64333e+02
1133	2.68815e+02	1.13300e+03	2.80844e+00	2.67667e+02
1143	2.72229e+02	1.14300e+03	2.80652e+00	2.71000e+02
1153	2.75709e+02	1.15300e+03	2.80417e+00	2.74333e+02
1163	2.79127e+02	1.16300e+03	2.80116e+00	2.77667e+02
1173	2.82532e+02	1.17300e+03	2.79734e+00	2.81000e+02
1183	2.85857e+02	1.18300e+03	2.79274e+00	2.84333e+02
1193	2.89179e+02	1.19300e+03	2.78713e+00	2.87667e+02
1203	2.92530e+02	1.20300e+03	2.78009e+00	2.91000e+02
1213	2.95948e+02	1.21300e+03	2.77153e+00	2.94333e+02
1223	2.99326e+02	1.22300e+03	2.76149e+00	2.97667e+02
1233	3.02580e+02	1.23300e+03	2.74994e+00	3.01000e+02
1243	3.05935e+02	1.24300e+03	2.73697e+00	3.04333e+02
1253	3.09314e+02	1.25300e+03	2.72308e+00	3.07667e+02
1263	3.12725e+02	1.26300e+03	2.70853e+00	3.11000e+02
1273	3.16074e+02	1.27300e+03	2.69383e+00	3.14333e+02
1283	3.19398e+02	1.28300e+03	2.67877e+00	3.17667e+02
1293	3.22726e+02	1.29300e+03	2.66293e+00	3.21000e+02
1303	3.26044e+02	1.30300e+03	2.64536e+00	3.24333e+02
1313	3.29376e+02	1.31300e+03	2.62460e+00	3.27667e+02
1323	3.32645e+02	1.32300e+03	2.59935e+00	3.31000e+02
1333	3.35917e+02	1.33300e+03	2.56813e+00	3.34333e+02
1343	3.39206e+02	1.34300e+03	2.52987e+00	3.37667e+02
1353	3.42500e+02	1.35300e+03	2.48244e+00	3.41000e+02
1363	3.45792e+02	1.36300e+03	2.42481e+00	3.44333e+02
1373	3.49103e+02	1.37300e+03	2.35488e+00	3.47667e+02
1383	3.52526e+02	1.38300e+03	2.27235e+00	3.51000e+02
1393	3.55803e+02	1.39300e+03	2.17595e+00	3.54333e+02
1403	3.59187e+02	1.40300e+03	2.06644e+00	3.57667e+02
1413	3.62512e+02	1.41300e+03	1.94400e+00	3.61000e+02
1423	3.65843e+02	1.42300e+03	1.81051e+00	3.64333e+02
1433	3.69209e+02	1.43300e+03	1.66629e+00	3.67667e+02
1443	3.72530e+02	1.44300e+03	1.51460e+00	3.71000e+02
1453	3.75818e+02	1.45300e+03	1.35932e+00	3.74333e+02
1463	3.79076e+02	1.46300e+03	1.20212e+00	3.77667e+02
1473	3.82459e+02	1.47300e+03	1.04554e+00	3.81000e+02
1483	3.85848e+02	1.48300e+03	8.93137e-01	3.84333e+02
1493	3.89120e+02	1.49300e+03	7.45355e-01	3.87667e+02
1503	3.92451e+02	1.50300e+03	6.06525e-01	3.91000e+02
1513	3.95785e+02	1.51300e+03	4.80047e-01	3.94333e+02
1523	3.99182e+02	1.52300e+03	3.71487e-01	3.97667e+02
1533	4.02492e+02	1.53300e+03	2.82704e-01	4.01000e+02
1543	4.05859e+02	1.54300e+03	2.11359e-01	4.04333e+02
1553	4.09234e+02	1.55300e+03	1.55947e-01	4.07667e+02
1563	4.12560e+02	1.56300e+03	1.12974e-01	4.11000e+02
1573	4.15912e+02	1.57300e+03	8.14075e-02	4.14333e+02
1583	4.19229e+02	1.58300e+03	5.86719e-02	4.17667e+02
1593	4.22407e+02	1.59300e+03	4.31084e-02	4.21000e+02
1603	4.25671e+02	1.60300e+03	3.26164e-02	4.24333e+02
1613	4.28930e+02	1.61300e+03	2.56748e-02	4.27667e+02
1623	4.32219e+02	1.62300e+03	2.12151e-02	4.31000e+02
1633	4.35519e+02	1.63300e+03	1.83735e-02	4.34333e+02
1643	4.38792e+02	1.64300e+03	1.64731e-02	4.37667e+02
1653	4.42044e+02	1.65300e+03	1.51596e-02	4.41000e+02
1663	4.45295e+02	1.66300e+03	1.43882e-02	4.44333e+02
1673	4.48619e+02	1.67300e+03	1.39224e-02	4.47667e+02
1683	4.51993e+02	1.68300e+03	1.36614e-02	4.51000e+02
1693	4.55274e+02	1.69300e+03	1.35941e-02	4.54333e+02
1703	4.58691e+02	1.70300e+03	1.34628e-02	4.57667e+02
1713	4.62025e+02	1.71300e+03	1.33489e-02	4.61000e+02
1723	4.65350e+02	1.72300e+03	1.31195e-02	4.64333e+02
1733	4.68615e+02	1.73300e+03	1.30099e-02	4.67667e+02
1743	4.71892e+02	1.74300e+03	1.29710e-02	4.71000e+02
1753	4.75225e+02	1.75300e+03	1.28713e-02	4.74333e+02
1763	4.78442e+02	1.76300e+03	1.27208e-02	4.77667e+02
1773	4.81777e+02	1.77300e+03	1.26854e-02	4.81000e+02
1783	4.85130e+02	1.78300e+03	1.26653e-02	4.84333e+02
1793	4.88611e+02	1.79300e+03	1.25485e-02	4.87667e+02
1803	4.91872e+02	1.80300e+03	1.25538e-02	4.91000e+02
1813	4.94881e+02	1.81300e+03	1.26025e-02	4.94333e+02
1823	4.97819e+02	1.82300e+03	1.25481e-02	4.97667e+02
1833	5.00949e+02	1.83300e+03	1.23871e-02	5.01000e+02
1843	5.04114e+02	1.84300e+03	1.22626e-02	5.04333e+02
1853	5.07281e+02	1.85300e+03	1.22648e-02	5.07667e+02
1863	5.10453e+02	1.86300e+03	1.21639e-02	5.11000e+02
1873	5.13612e+02	1.87300e+03	1.21119e-02	5.14333e+02
1883	5.16838e+02	1.88300e+03	1.21386e-02	5.17667e+02
1893	5.20099e+02	1.89300e+03	1.21922e-02	5.21000e+02
1903	5.23353e+02	1.90300e+03	1.21912e-02	5.24333e+02
1913	5.26624e+02	1.91300e+03	1.21218e-02	5.27667e+02
1923	5.29892e+02	1.92300e+03	1.20375e-02	5.31000e+02
1933	5.33144e+02	1.93300e+03	1.20764e-02	5.34333e+02
1943	5.36423e+02	1.94300e+03	1.20553e-02	5.37667e+02
1953	5.39698e+02	1.95300e+03	1.19649e-02	5.41000e+02
1963	5.42958e+02	1.96300e+03	1.20846e-02	5.44333e+02
1973	5.46213e+02	1.97300e+03	1.21054e-02	5.47667e+02
1983	5.49456e+02	1.98300e+03	1.20783e-02	5.51000e+02
1993	5.52718e+02	1.99300e+03	1.18251e-02	5.54333e+02
2003	5.55993e+02	2.00300e+03	1.17981e-02	5.57667e+02
2013	5.59281e+02	2.01300e+03	1.18260e-02	5.61000e+02
2023	5.62575e+02	2.02300e+03	1.18632e-02	5.64333e+02
2033	5.65851e+02	2.03300e+03	1.19527e-02	5.67667e+02
2043	5.69130e+02	2.04300e+03	1.20298e-02	5.71000e+02
2053	5.72408e+02	2.05300e+03	1.18814e-02	5.74333e+02
2063	5.75704e+02	2.06300e+03	1.18359e-02	5.77667e+02
2073	5.78982e+02	2.07300e+03	1.17424e-02	5.81000e+02
2083	5.82277e+02	2.08300e+03	1.17047e-02	5.84333e+02
2093	5.85555e+02	2.09300e+03	1.17344e-02	5.87667e+02
2103	5.88860e+02	2.10300e+03	1.17141e-02	5.91000e+02
2113	5.92154e+02	2.11300e+03	1.16054e-02	5.94333e+02
2123	5.95515e+02	2.12300e+03	1.16833e-02	5.97667e+02
2133	5.98850e+02	2.13300e+03	1.17364e-02	6.01000e+02
2143	6.02222e+02	2.14300e+03	1.17215e-02	6.04333e+02
2153	6.05537e+02	2.15300e+03	1.16201e-02	6.07667e+02
2163	6.08875e+02	2.16300e+03	1.17406e-02	6.11000e+02
2173	6.12163e+02	2.17300e+03	1.18099e-02	6.14333e+02
2183	6.15672e+02	2.18300e+03	1.16965e-02	6.17667e+02
2193	6.19399e+02	2.19300e+03	1.15240e-02	6.21000e+02
2203	6.22515e+02	2.20300e+03	1.16913e-02	6.24333e+02
2213	6.25671e+02	2.21300e+03	1.16876e-02	6.27667e+02
2223	6.28950e+02	2.22300e+03	1.16601e-02	6.31000e+02
2233	6.32245e+02	2.23300e+03	1.16367e-02	6.34333e+02
2243	6.35537e+02	2.24300e+03	1.16242e-02	6.37667e+02
2253	6.38827e+02	2.25300e+03	1.16234e-02	6.41000e+02
2263	6.42099e+02	2.26300e+03	1.16208e-02	6.44333e+02
2273	6.45432e+02	2.27300e+03	1.15968e-02	6.47667e+02
2283	6.48779e+02	2.28300e+03	1.15147e-02	6.51000e+02
2293	6.52105e+02	2.29300e+03	1.15993e-02	6.54333e+02
2303	6.55444e+02	2.30300e+03	1.15019e-02	6.57667e+02
2313	6.58765e+02	2.31300e+03	1.15763e-02	6.61000e+02
2323	6.62066e+02	2.32300e+03	1.15645e-02	6.64333e+02
2333	6.65401e+02	2.33300e+03	1.14150e-02	6.67667e+02
2343	6.68711e+02	2.34300e+03	1.13509e-02	6.71000e+02
2353	6.72050e+02	2.35300e+03	1.13963e-02	6.74333e+02
2363	6.75386e+02	2.36300e+03	1.14830e-02	6.77667e+02
2373	6.78718e+02	2.37300e+03	1.14352e-02	6.81000e+02
2383	6.82040e+02	2.38300e+03	1.13383e-02	6.84333e+02
2393	6.85337e+02	2.39300e+03	1.13631e-02	6.87667e+02
2403	6.88645e+02	2.40300e+03	1.12609e-02	6.91000e+02
2413	6.90854e+02	2.41300e+03	1.13299e-02	6.94333e+02
2423	6.92689e+02	2.42300e+03	1.12312e-02	6.97667e+02
2430	6.93675e+02	2.43000e+03	1.12145e-02	7.00000e+02

File: tga_dynamic_n2_dyn20_powder_3mg_r3.txt
index	ts	t	weight	tr
[#]	[°C]	[s]	[mg]	[°C]
723	1.29954e+02	7.23000e+02	2.99419e+00	1.31000e+02
733	1.33277e+02	7.33000e+02	2.99375e+00	1.34333e+02
743	1.36607e+02	7.43000e+02	2.99310e+00	1.37667e+02
753	1.39934e+02	7.53000e+02	2.99221e+00	1.41000e+02
763	1.43280e+02	7.63000e+02	2.99137e+00	1.44333e+02
773	1.46624e+02	7.73000e+02	2.99021e+00	1.47667e+02
783	1.49983e+02	7.83000e+02	2.98877e+00	1.51000e+02
793	1.53322e+02	7.93000e+02	2.98711e+00	1.54333e+02
803	1.56692e+02	8.03000e+02	2.98522e+00	1.57667e+02
813	1.60052e+02	8.13000e+02	2.98324e+00	1.61000e+02
823	1.63441e+02	8.23000e+02	2.98111e+00	1.64333e+02
833	1.66808e+02	8.33000e+02	2.97854e+00	1.67667e+02
843	1.70189e+02	8.43000e+02	2.97508e+00	1.71000e+02
853	1.73576e+02	8.53000e+02	2.97046e+00	1.74333e+02
863	1.76975e+02	8.63000e+02	2.96425e+00	1.77667e+02
873	1.80371e+02	8.73000e+02	2.95598e+00	1.81000e+02
883	1.83756e+02	8.83000e+02	2.94625e+00	1.84333e+02
893	1.87132e+02	8.93000e+02	2.93495e+00	1.87667e+02
903	1.90534e+02	9.03000e+02	2.92290e+00	1.91000e+02
913	1.93913e+02	9.13000e+02	2.91110e+00	1.94333e+02
923	1.97300e+02	9.23000e+02	2.90034e+00	1.97667e+02
933	2.00704e+02	9.33000e+02	2.89177e+00	2.01000e+02
943	2.04098e+02	9.43000e+02	2.88533e+00	2.04333e+02
953	2.07489e+02	9.53000e+02	2.88073e+00	2.07667e+02
963	2.10894e+02	9.63000e+02	2.87735e+00	2.11000e+02
973	2.14281e+02	9.73000e+02	2.87473e+00	2.14333e+02
983	2.17680e+02	9.83000e+02	2.87224e+00	2.17667e+02
993	2.21062e+02	9.93000e+02	2.86971e+00	2.21000e+02
1003	2.24433e+02	1.00300e+03	2.86718e+00	2.24333e+02
1013	2.27803e+02	1.01300e+03	2.86443e+00	2.27667e+02
1023	2.31175e+02	1.02300e+03	2.86214e+00	2.31000e+02
1033	2.34555e+02	1.03300e+03	2.85990e+00	2.34333e+02
1043	2.37917e+02	1.04300e+03	2.85780e+00	2.37667e+02
1053	2.41334e+02	1.05300e+03	2.85606e+00	2.41000e+02
1063	2.44740e+02	1.06300e+03	2.85447e+00	2.44333e+02
1073	2.48151e+02	1.07300e+03	2.85309e+00	2.47667e+02
1083	2.51668e+02	1.08300e+03	2.85170e+00	2.51000e+02
1093	2.55214e+02	1.09300e+03	2.85027e+00	2.54333e+02
1103	2.58633e+02	1.10300e+03	2.84895e+00	2.57667e+02
1113	2.62018e+02	1.11300e+03	2.84761e+00	2.61000e+02
1123	2.65439e+02	1.12300e+03	2.84607e+00	2.64333e+02
1133	2.68863e+02	1.13300e+03	2.84434e+00	2.67667e+02
1143	2.72261e+02	1.14300e+03	2.84225e+00	2.71000e+02
1153	2.75619e+02	1.15300e+03	2.83963e+00	2.74333e+02
1163	2.79030e+02	1.16300e+03	2.83660e+00	2.77667e+02
1173	2.82337e+02	1.17300e+03	2.83275e+00	2.81000e+02
1183	2.85631e+02	1.18300e+03	2.82796e+00	2.84333e+02
1193	2.88880e+02	1.19300e+03	2.82204e+00	2.87667e+02
1203	2.92154e+02	1.20300e+03	2.81482e+00	2.91000e+02
1213	2.95549e+02	1.21300e+03	2.80595e+00	2.94333e+02
1223	2.98934e+02	1.22300e+03	2.79561e+00	2.97667e+02
1233	3.02391e+02	1.23300e+03	2.78368e+00	3.01000e+02
1243	3.05726e+02	1.24300e+03	2.77045e+00	3.04333e+02
1253	3.08940e+02	1.25300e+03	2.75638e+00	3.07667e+02
1263	3.12241e+02	1.26300e+03	2.74172e+00	3.11000e+02
1273	3.15510e+02	1.27300e+03	2.72676e+00	3.14333e+02
1283	3.18809e+02	1.28300e+03	2.71144e+00	3.17667e+02
1293	3.22089e+02	1.29300e+03	2.69528e+00	3.21000e+02
1303	3.25418e+02	1.30300e+03	2.67733e+00	3.24333e+02
1313	3.28683e+02	1.31300e+03	2.65604e+00	3.27667e+02
1323	3.31974e+02	1.32300e+03	2.63018e+00	3.31000e+02
1333	3.35247e+02	1.33300e+03	2.59811e+00	3.34333e+02
1343	3.38588e+02	1.34300e+03	2.55880e+00	3.37667e+02
1353	3.41923e+02	1.35300e+03	2.51005e+00	3.41000e+02
1363	3.45265e+02	1.36300e+03	2.45088e+00	3.44333e+02
1373	3.48623e+02	1.37300e+03	2.37931e+00	3.47667e+02
1383	3.52040e+02	1.38300e+03	2.29520e+00	3.51000e+02
1393	3.55487e+02	1.39300e+03	2.19711e+00	3.54333e+02
1403	3.58889e+02	1.40300e+03	2.08590e+00	3.57667e+02
1413	3.62226e+02	1.41300e+03	1.96219e+00	3.61000e+02
1423	3.65630e+02	1.42300e+03	1.82748e+00	3.64333e+02
1433	3.69012e+02	1.43300e+03	1.68159e+00	3.67667e+02
1443	3.72272e+02	1.44300e+03	1.52827e+00	3.71000e+02
1453	3.75562e+02	1.45300e+03	1.37199e+00	3.74333e+02
1463	3.78919e+02	1.46300e+03	1.20648e+00	3.77667e+02
1473	3.82294e+02	1.47300e+03	1.03119e+00	3.81000e+02
1483	3.85680e+02	1.48300e+03	8.68621e-01	3.84333e+02
1493	3.89032e+02	1.49300e+03	7.17296e-01	3.87667e+02
1503	3.92403e+02	1.50300e+03	5.79033e-01	3.91000e+02
1513	3.95755e+02	1.51300e+03	4.58248e-01	3.94333e+02
1523	3.99116e+02	1.52300e+03	3.55597e-01	3.97667e+02
1533	4.02405e+02	1.53300e+03	2.71674e-01	4.01000e+02
1543	4.05735e+02	1.54300e+03	2.04075e-01	4.04333e+02
1553	4.09037e+02	1.55300e+03	1.51373e-01	4.07667e+02
1563	4.12393e+02	1.56300e+03	1.10747e-01	4.11000e+02
1573	4.15826e+02	1.57300e+03	8.08625e-02	4.14333e+02
1583	4.19114e+02	1.58300e+03	5.91722e-02	4.17667e+02
1593	4.22336e+02	1.59300e+03	4.40512e-02	4.21000e+02
1603	4.25636e+02	1.60300e+03	3.35757e-02	4.24333e+02
1613	4.28961e+02	1.61300e+03	2.65511e-02	4.27667e+02
1623	4.32220e+02	1.62300e+03	2.19102e-02	4.31000e+02
1633	4.35484e+02	1.63300e+03	1.88691e-02	4.34333e+02
1643	4.38848e+02	1.64300e+03	1.68100e-02	4.37667e+02
1653	4.42150e+02	1.65300e+03	1.55998e-02	4.41000e+02
1663	4.45370e+02	1.66300e+03	1.48500e-02	4.44333e+02
1673	4.48628e+02	1.67300e+03	1.44464e-02	4.47667e+02
1683	4.51817e+02	1.68300e+03	1.42651e-02	4.51000e+02
1693	4.55049e+02	1.69300e+03	1.40372e-02	4.54333e+02
1703	4.58355e+02	1.70300e+03	1.38860e-02	4.57667e+02
1713	4.61655e+02	1.71300e+03	1.37650e-02	4.61000e+02
1723	4.64918e+02	1.72300e+03	1.36376e-02	4.64333e+02
1733	4.68249e+02	1.73300e+03	1.35319e-02	4.67667e+02
1743	4.71844e+02	1.74300e+03	1.34118e-02	4.71000e+02
1753	4.75157e+02	1.75300e+03	1.33666e-02	4.74333e+02
1763	4.78853e+02	1.76300e+03	1.31864e-02	4.77667e+02
1773	4.82245e+02	1.77300e+03	1.31489e-02	4.81000e+02
1783	4.85352e+02	1.78300e+03	1.30537e-02	4.84333e+02
1793	4.88462e+02	1.79300e+03	1.31114e-02	4.87667e+02
1803	4.91614e+02	1.80300e+03	1.30736e-02	4.91000e+02
1813	4.94983e+02	1.81300e+03	1.31024e-02	4.94333e+02
1823	4.98023e+02	1.82300e+03	1.30767e-02	4.97667e+02
1833	5.01069e+02	1.83300e+03	1.29417e-02	5.01000e+02
1843	5.04006e+02	1.84300e+03	1.29167e-02	5.04333e+02
1853	5.07117e+02	1.85300e+03	1.28217e-02	5.07667e+02
1863	5.10294e+02	1.86300e+03	1.27432e-02	5.11000e+02
1873	5.13506e+02	1.87300e+03	1.27339e-02	5.14333e+02
1883	5.16709e+02	1.88300e+03	1.27061e-02	5.17667e+02
1893	5.19948e+02	1.89300e+03	1.27644e-02	5.21000e+02
1903	5.23183e+02	1.90300e+03	1.26507e-02	5.24333e+02
1913	5.26444e+02	1.91300e+03	1.26429e-02	5.27667e+02
1923	5.29665e+02	1.92300e+03	1.25396e-02	5.31000e+02
1933	5.32894e+02	1.93300e+03	1.26359e-02	5.34333e+02
1943	5.36155e+02	1.94300e+03	1.26431e-02	5.37667e+02
1953	5.39415e+02	1.95300e+03	1.25438e-02	5.41000e+02
1963	5.42660e+02	1.96300e+03	1.26241e-02	5.44333e+02
1973	5.45929e+02	1.97300e+03	1.25671e-02	5.47667e+02
1983	5.49211e+02	1.98300e+03	1.25195e-02	5.51000e+02
1993	5.52500e+02	1.99300e+03	1.23001e-02	5.54333e+02
2003	5.55814e+02	2.00300e+03	1.23773e-02	5.57667e+02
2013	5.59118e+02	2.01300e+03	1.23630e-02	5.61000e+02
2023	5.62410e+02	2.02300e+03	1.23799e-02	5.64333e+02
2033	5.65677e+02	2.03300e+03	1.25137e-02	5.67667e+02
2043	5.68978e+02	2.04300e+03	1.25337e-02	5.71000e+02
2053	5.72252e+02	2.05300e+03	1.24214e-02	5.74333e+02
2063	5.75535e+02	2.06300e+03	1.23515e-02	5.77667e+02
2073	5.78825e+02	2.07300e+03	1.23697e-02	5.81000e+02
2083	5.82124e+02	2.08300e+03	1.22554e-02	5.84333e+02
2093	5.85403e+02	2.09300e+03	1.22837e-02	5.87667e+02
2103	5.88753e+02	2.10300e+03	1.24111e-02	5.91000e+02
2113	5.92087e+02	2.11300e+03	1.22180e-02	5.94333e+02
2123	5.95461e+02	2.12300e+03	1.22289e-02	5.97667e+02
2133	5.98826e+02	2.13300e+03	1.23347e-02	6.01000e+02
2143	6.02082e+02	2.14300e+03	1.23259e-02	6.04333e+02
2153	6.05387e+02	2.15300e+03	1.22275e-02	6.07667e+02
2163	6.08656e+02	2.16300e+03	1.21955e-02	6.11000e+02
2173	6.11937e+02	2.17300e+03	1.22049e-02	6.14333e+02
2183	6.15278e+02	2.18300e+03	1.21873e-02	6.17667e+02
2193	6.18613e+02	2.19300e+03	1.20660e-02	6.21000e+02
2203	6.21949e+02	2.20300e+03	1.20688e-02	6.24333e+02
2213	6.25269e+02	2.21300e+03	1.21283e-02	6.27667e+02
2223	6.28596e+02	2.22300e+03	1.20914e-02	6.31000e+02
2233	6.32010e+02	2.23300e+03	1.21249e-02	6.34333e+02
2243	6.35692e+02	2.24300e+03	1.20418e-02	6.37667e+02
2253	6.38899e+02	2.25300e+03	1.20967e-02	6.41000e+02
2263	6.42266e+02	2.26300e+03	1.21473e-02	6.44333e+02
2273	6.45507e+02	2.27300e+03	1.20489e-02	6.47667e+02
2283	6.48789e+02	2.28300e+03	1.20035e-02	6.51000e+02
2293	6.52076e+02	2.29300e+03	1.20661e-02	6.54333e+02
2303	6.55362e+02	2.30300e+03	1.20688e-02	6.57667e+02
2313	6.58656e+02	2.31300e+03	1.21555e-02	6.61000e+02
2323	6.61967e+02	2.32300e+03	1.21853e-02	6.64333e+02
2333	6.65292e+02	2.33300e+03	1.21038e-02	6.67667e+02
2343	6.68616e+02	2.34300e+03	1.20221e-02	6.71000e+02
2353	6.71909e+02	2.35300e+03	1.19605e-02	6.74333e+02
2363	6.75209e+02	2.36300e+03	1.19948e-02	6.77667e+02
2373	6.78531e+02	2.37300e+03	1.19286e-02	6.81000e+02
2383	6.81835e+02	2.38300e+03	1.17829e-02	6.84333e+02
2393	6.85144e+02	2.39300e+03	1.17429e-02	6.87667e+02
2403	6.88458e+02	2.40300e+03	1.18260e-02	6.91000e+02
2413	6.90667e+02	2.41300e+03	1.18609e-02	6.94333e+02
2423	6.92499e+02	2.42300e+03	1.17705e-02	6.97667e+02
2430	6.93485e+02	2.43000e+03	1.18322e-02	7.00000e+02