Folder: Pyrolysis_BESKID/Experiments/TUBS/tga_nonisotherm

Note: README.md
# Pyrolysis_BESKID
Preparation of pyrolysis modelling publication.


## Python Scripting

The Python scripts are built on Python version: 3.13.3 (tags/v3.13.3:6280bb5, Apr  8 2025, 14:47:33) [MSC v.1943 64 bit (AMD64)]

Use the `requirements.txt` to build a virtual Python environment. It is located in `GeneralInformation\Python_venv`.

### How to set up a virtual Python environment on Windows

This description assumes you intent to set up a virtual Python environment on Windows, using Powershell. Adjust the paths according to your setup.

From a clean [Python installation](https://www.python.org/downloads/), create a clean virtual environment. This is done by typing the following command into the Powershell terminal: ` C:\Programs\Python\Python313\python.exe -m venv name_of_your_environment`. You can give it a name by changing `name_of_your_environment` to what ever name you like. This will create a directory of the chosen name, containing the necessary files of the environment.

In Powershell, the process needs to be given permission to run the environment, like so:
`Set-ExecutionPolicy Unrestricted -Scope Process`
Set the exception for this process by hitting "Y" (yes). This step needs to be repeated every time you want to run the environment from your console, but is not necessary if you use it just as Jupyter kernel (see below).

Now, you can start the environment. For this, a specific file in the directory needs to be called in Powershell: `C:\Venvs\name_of_your_environment\Scripts\activate`.

The `requirements.txt` can now be used to install specific packages recursively: `pip install -r C:\Pyrolysis_BESKID\GeneralInformation\Python_venv\requirements.txt`.

You can use this virtual environment as kernel for your Jupyter notebooks. It can be installed as follows: `python -m ipykernel install --user --name=name_of_your_environment --display-name "Python (name_of_your_environment)"`.

File: tga_dynamic_n2_dyn5_piece_1mg_r1.txt
index	ts	t	weight	tr
[#]	[°C]	[s]	[mg]	[°C]
1083	1.30258e+02	1.08300e+03	9.77411e-01	1.30250e+02
1120	1.33357e+02	1.12000e+03	9.77315e-01	1.33333e+02
1157	1.36428e+02	1.15700e+03	9.77293e-01	1.36417e+02
1194	1.39510e+02	1.19400e+03	9.77356e-01	1.39500e+02
1231	1.42602e+02	1.23100e+03	9.76999e-01	1.42583e+02
1268	1.45688e+02	1.26800e+03	9.77302e-01	1.45667e+02
1305	1.48793e+02	1.30500e+03	9.77123e-01	1.48750e+02
1342	1.51894e+02	1.34200e+03	9.77199e-01	1.51833e+02
1379	1.54991e+02	1.37900e+03	9.77210e-01	1.54917e+02
1416	1.58090e+02	1.41600e+03	9.77224e-01	1.58000e+02
1453	1.61169e+02	1.45300e+03	9.77037e-01	1.61083e+02
1490	1.64269e+02	1.49000e+03	9.76690e-01	1.64167e+02
1527	1.67359e+02	1.52700e+03	9.76271e-01	1.67250e+02
1564	1.70438e+02	1.56400e+03	9.75609e-01	1.70333e+02
1601	1.73539e+02	1.60100e+03	9.74824e-01	1.73417e+02
1638	1.76611e+02	1.63800e+03	9.73838e-01	1.76500e+02
1675	1.79712e+02	1.67500e+03	9.72639e-01	1.79583e+02
1712	1.82807e+02	1.71200e+03	9.71521e-01	1.82667e+02
1749	1.85903e+02	1.74900e+03	9.70153e-01	1.85750e+02
1786	1.88982e+02	1.78600e+03	9.68686e-01	1.88833e+02
1823	1.92074e+02	1.82300e+03	9.67361e-01	1.91917e+02
1860	1.95169e+02	1.86000e+03	9.65940e-01	1.95000e+02
1897	1.98256e+02	1.89700e+03	9.64251e-01	1.98083e+02
1934	2.01354e+02	1.93400e+03	9.62795e-01	2.01167e+02
1971	2.04438e+02	1.97100e+03	9.61091e-01	2.04250e+02
2008	2.07527e+02	2.00800e+03	9.59508e-01	2.07333e+02
2045	2.10614e+02	2.04500e+03	9.58040e-01	2.10417e+02
2082	2.13708e+02	2.08200e+03	9.56545e-01	2.13500e+02
2119	2.16794e+02	2.11900e+03	9.54869e-01	2.16583e+02
2156	2.19892e+02	2.15600e+03	9.53235e-01	2.19667e+02
2193	2.22964e+02	2.19300e+03	9.51500e-01	2.22750e+02
2230	2.26048e+02	2.23000e+03	9.49862e-01	2.25833e+02
2267	2.29135e+02	2.26700e+03	9.48179e-01	2.28917e+02
2304	2.32225e+02	2.30400e+03	9.46439e-01	2.32000e+02
2341	2.35305e+02	2.34100e+03	9.44924e-01	2.35083e+02
2378	2.38405e+02	2.37800e+03	9.43579e-01	2.38167e+02
2415	2.41472e+02	2.41500e+03	9.42200e-01	2.41250e+02
2452	2.44566e+02	2.45200e+03	9.40820e-01	2.44333e+02
2489	2.47651e+02	2.48900e+03	9.39378e-01	2.47417e+02
2526	2.50738e+02	2.52600e+03	9.38115e-01	2.50500e+02
2563	2.53812e+02	2.56300e+03	9.36931e-01	2.53583e+02
2600	2.56906e+02	2.60000e+03	9.35670e-01	2.56667e+02
2637	2.59975e+02	2.63700e+03	9.34455e-01	2.59750e+02
2674	2.63064e+02	2.67400e+03	9.33162e-01	2.62833e+02
2711	2.66148e+02	2.71100e+03	9.31870e-01	2.65917e+02
2748	2.69228e+02	2.74800e+03	9.30356e-01	2.69000e+02
2785	2.72309e+02	2.78500e+03	9.28805e-01	2.72083e+02
2822	2.75383e+02	2.82200e+03	9.27104e-01	2.75167e+02
2859	2.78476e+02	2.85900e+03	9.24795e-01	2.78250e+02
2896	2.81545e+02	2.89600e+03	9.22210e-01	2.81333e+02
2933	2.84635e+02	2.93300e+03	9.19398e-01	2.84417e+02
2970	2.87719e+02	2.97000e+03	9.15976e-01	2.87500e+02
3007	2.90799e+02	3.00700e+03	9.12511e-01	2.90583e+02
3044	2.93882e+02	3.04400e+03	9.08587e-01	2.93667e+02
3081	2.96942e+02	3.08100e+03	9.04779e-01	2.96750e+02
3118	3.00029e+02	3.11800e+03	9.00696e-01	2.99833e+02
3155	3.03099e+02	3.15500e+03	8.96568e-01	3.02917e+02
3192	3.06177e+02	3.19200e+03	8.92142e-01	3.06000e+02
3229	3.09247e+02	3.22900e+03	8.87283e-01	3.09083e+02
3266	3.12316e+02	3.26600e+03	8.81824e-01	3.12167e+02
3303	3.15396e+02	3.30300e+03	8.75350e-01	3.15250e+02
3340	3.18476e+02	3.34000e+03	8.67276e-01	3.18333e+02
3377	3.21548e+02	3.37700e+03	8.57754e-01	3.21417e+02
3414	3.24623e+02	3.41400e+03	8.45924e-01	3.24500e+02
3451	3.27689e+02	3.45100e+03	8.31169e-01	3.27583e+02
3488	3.30764e+02	3.48800e+03	8.12866e-01	3.30667e+02
3525	3.33832e+02	3.52500e+03	7.90463e-01	3.33750e+02
3562	3.36909e+02	3.56200e+03	7.63546e-01	3.36833e+02
3599	3.39974e+02	3.59900e+03	7.31170e-01	3.39917e+02
3636	3.43040e+02	3.63600e+03	6.92875e-01	3.43000e+02
3673	3.46107e+02	3.67300e+03	6.48761e-01	3.46083e+02
3710	3.49172e+02	3.71000e+03	5.97000e-01	3.49167e+02
3747	3.52238e+02	3.74700e+03	5.41546e-01	3.52250e+02
3784	3.55316e+02	3.78400e+03	4.82887e-01	3.55333e+02
3821	3.58394e+02	3.82100e+03	4.23809e-01	3.58417e+02
3858	3.61457e+02	3.85800e+03	3.64037e-01	3.61500e+02
3895	3.64535e+02	3.89500e+03	3.02831e-01	3.64583e+02
3932	3.67601e+02	3.93200e+03	2.45227e-01	3.67667e+02
3969	3.70693e+02	3.96900e+03	1.93351e-01	3.70750e+02
4006	3.73771e+02	4.00600e+03	1.48251e-01	3.73833e+02
4043	3.76859e+02	4.04300e+03	1.10617e-01	3.76917e+02
4080	3.79947e+02	4.08000e+03	8.11284e-02	3.80000e+02
4117	3.83024e+02	4.11700e+03	5.82041e-02	3.83083e+02
4154	3.86095e+02	4.15400e+03	4.08986e-02	3.86167e+02
4191	3.89170e+02	4.19100e+03	2.86637e-02	3.89250e+02
4228	3.92247e+02	4.22800e+03	1.93468e-02	3.92333e+02
4265	3.95333e+02	4.26500e+03	1.33074e-02	3.95417e+02
4302	3.98388e+02	4.30200e+03	8.64038e-03	3.98500e+02
4339	4.01474e+02	4.33900e+03	4.96284e-03	4.01583e+02
4376	4.04540e+02	4.37600e+03	2.46339e-03	4.04667e+02
4413	4.07617e+02	4.41300e+03	5.19585e-04	4.07750e+02
4450	4.10678e+02	4.45000e+03	-9.43208e-04	4.10833e+02
4487	4.13747e+02	4.48700e+03	-2.10478e-03	4.13917e+02
4524	4.16823e+02	4.52400e+03	-2.87400e-03	4.17000e+02
4561	4.19898e+02	4.56100e+03	-3.57325e-03	4.20083e+02
4598	4.22951e+02	4.59800e+03	-4.03282e-03	4.23167e+02
4635	4.26016e+02	4.63500e+03	-4.20206e-03	4.26250e+02
4672	4.29099e+02	4.67200e+03	-3.78430e-03	4.29333e+02
4709	4.32170e+02	4.70900e+03	-4.32780e-03	4.32417e+02
4746	4.35236e+02	4.74600e+03	-4.34808e-03	4.35500e+02
4783	4.38299e+02	4.78300e+03	-4.51745e-03	4.38583e+02
4820	4.41352e+02	4.82000e+03	-5.26948e-03	4.41667e+02
4857	4.44416e+02	4.85700e+03	-4.63844e-03	4.44750e+02
4894	4.47486e+02	4.89400e+03	-4.75742e-03	4.47833e+02
4931	4.50562e+02	4.93100e+03	-4.88577e-03	4.50917e+02
4968	4.53620e+02	4.96800e+03	-4.84112e-03	4.54000e+02
5005	4.56683e+02	5.00500e+03	-5.10153e-03	4.57083e+02
5042	4.59724e+02	5.04200e+03	-4.93853e-03	4.60167e+02
5079	4.62786e+02	5.07900e+03	-5.09086e-03	4.63250e+02
5116	4.65849e+02	5.11600e+03	-4.99067e-03	4.66333e+02
5153	4.68912e+02	5.15300e+03	-5.05110e-03	4.69417e+02
5190	4.71955e+02	5.19000e+03	-5.28602e-03	4.72500e+02
5227	4.75023e+02	5.22700e+03	-5.18319e-03	4.75583e+02
5264	4.78082e+02	5.26400e+03	-5.21375e-03	4.78667e+02
5301	4.81148e+02	5.30100e+03	-5.26142e-03	4.81750e+02
5338	4.84193e+02	5.33800e+03	-5.07255e-03	4.84833e+02
5375	4.87270e+02	5.37500e+03	-5.20131e-03	4.87917e+02
5412	4.90326e+02	5.41200e+03	-5.13666e-03	4.91000e+02
5449	4.93392e+02	5.44900e+03	-5.05408e-03	4.94083e+02
5486	4.96457e+02	5.48600e+03	-5.23757e-03	4.97167e+02
5523	4.99538e+02	5.52300e+03	-5.23122e-03	5.00250e+02
5560	5.02602e+02	5.56000e+03	-5.24963e-03	5.03333e+02
5597	5.05659e+02	5.59700e+03	-5.36453e-03	5.06417e+02
5634	5.08736e+02	5.63400e+03	-5.21528e-03	5.09500e+02
5671	5.11820e+02	5.67100e+03	-5.14333e-03	5.12583e+02
5708	5.14893e+02	5.70800e+03	-5.08644e-03	5.15667e+02
5745	5.17955e+02	5.74500e+03	-5.11667e-03	5.18750e+02
5782	5.21030e+02	5.78200e+03	-5.07067e-03	5.21833e+02
5819	5.24114e+02	5.81900e+03	-5.13519e-03	5.24917e+02
5856	5.27185e+02	5.85600e+03	-5.17498e-03	5.28000e+02
5893	5.30258e+02	5.89300e+03	-5.22654e-03	5.31083e+02
5930	5.33339e+02	5.93000e+03	-5.23672e-03	5.34167e+02
5967	5.36418e+02	5.96700e+03	-5.14533e-03	5.37250e+02
6004	5.39490e+02	6.00400e+03	-5.23139e-03	5.40333e+02
6041	5.42568e+02	6.04100e+03	-5.15577e-03	5.43417e+02
6078	5.45648e+02	6.07800e+03	-5.13402e-03	5.46500e+02
6115	5.48735e+02	6.11500e+03	-5.10646e-03	5.49583e+02
6152	5.51806e+02	6.15200e+03	-5.20819e-03	5.52667e+02
6189	5.54888e+02	6.18900e+03	-5.12268e-03	5.55750e+02
6226	5.57970e+02	6.22600e+03	-5.22997e-03	5.58833e+02
6263	5.61053e+02	6.26300e+03	-5.28990e-03	5.61917e+02
6300	5.64154e+02	6.30000e+03	-5.25581e-03	5.65000e+02
6337	5.67230e+02	6.33700e+03	-5.32397e-03	5.68083e+02
6374	5.70317e+02	6.37400e+03	-5.14462e-03	5.71167e+02
6411	5.73397e+02	6.41100e+03	-5.15304e-03	5.74250e+02
6448	5.76486e+02	6.44800e+03	-5.29734e-03	5.77333e+02
6485	5.79578e+02	6.48500e+03	-5.09125e-03	5.80417e+02
6522	5.82656e+02	6.52200e+03	-5.22530e-03	5.83500e+02
6559	5.85740e+02	6.55900e+03	-5.03489e-03	5.86583e+02
6596	5.88829e+02	6.59600e+03	-5.16046e-03	5.89667e+02
6633	5.91902e+02	6.63300e+03	-5.24699e-03	5.92750e+02
6670	5.94991e+02	6.67000e+03	-5.15363e-03	5.95833e+02
6707	5.98079e+02	6.70700e+03	-5.19847e-03	5.98917e+02
6744	6.01161e+02	6.74400e+03	-5.24256e-03	6.02000e+02
6781	6.04245e+02	6.78100e+03	-5.28804e-03	6.05083e+02
6818	6.07325e+02	6.81800e+03	-5.16057e-03	6.08167e+02
6855	6.10401e+02	6.85500e+03	-5.13322e-03	6.11250e+02
6892	6.13499e+02	6.89200e+03	-5.33067e-03	6.14333e+02
6929	6.16595e+02	6.92900e+03	-5.44797e-03	6.17417e+02
6966	6.19670e+02	6.96600e+03	-5.35526e-03	6.20500e+02
7003	6.22755e+02	7.00300e+03	-5.42865e-03	6.23583e+02
7040	6.25865e+02	7.04000e+03	-5.42920e-03	6.26667e+02
7077	6.28956e+02	7.07700e+03	-5.18302e-03	6.29750e+02
7114	6.32041e+02	7.11400e+03	-5.31709e-03	6.32833e+02
7151	6.35140e+02	7.15100e+03	-5.32766e-03	6.35917e+02
7188	6.38231e+02	7.18800e+03	-5.23543e-03	6.39000e+02
7225	6.41319e+02	7.22500e+03	-5.40234e-03	6.42083e+02
7262	6.44421e+02	7.26200e+03	-5.51913e-03	6.45167e+02
7299	6.47526e+02	7.29900e+03	-5.32218e-03	6.48250e+02
7336	6.50611e+02	7.33600e+03	-5.33162e-03	6.51333e+02
7373	6.53713e+02	7.37300e+03	-5.30977e-03	6.54417e+02
7410	6.56814e+02	7.41000e+03	-5.38477e-03	6.57500e+02
7447	6.59888e+02	7.44700e+03	-5.37717e-03	6.60583e+02
7484	6.62978e+02	7.48400e+03	-5.41089e-03	6.63667e+02
7521	6.66061e+02	7.52100e+03	-5.29393e-03	6.66750e+02
7558	6.69154e+02	7.55800e+03	-5.14881e-03	6.69833e+02
7595	6.72257e+02	7.59500e+03	-5.15320e-03	6.72917e+02
7632	6.75333e+02	7.63200e+03	-5.31267e-03	6.76000e+02
7669	6.78435e+02	7.66900e+03	-5.12357e-03	6.79083e+02
7706	6.81539e+02	7.70600e+03	-5.19595e-03	6.82167e+02
7743	6.84624e+02	7.74300e+03	-5.28256e-03	6.85250e+02
7780	6.87734e+02	7.78000e+03	-5.17218e-03	6.88333e+02
7817	6.90832e+02	7.81700e+03	-5.06119e-03	6.91417e+02
7854	6.93935e+02	7.85400e+03	-5.09414e-03	6.94500e+02
7891	6.97039e+02	7.89100e+03	-5.23779e-03	6.97583e+02
7920	6.98507e+02	7.92000e+03	-5.15405e-03	7.00000e+02

File: tga_dynamic_n2_dyn5_piece_1mg_r2.txt
index	ts	t	weight	tr
[#]	[°C]	[s]	[mg]	[°C]
1083	1.30225e+02	1.08300e+03	9.47736e-01	1.30250e+02
1120	1.33334e+02	1.12000e+03	9.47611e-01	1.33333e+02
1157	1.36411e+02	1.15700e+03	9.47651e-01	1.36417e+02
1194	1.39500e+02	1.19400e+03	9.47685e-01	1.39500e+02
1231	1.42592e+02	1.23100e+03	9.47532e-01	1.42583e+02
1268	1.45686e+02	1.26800e+03	9.47561e-01	1.45667e+02
1305	1.48781e+02	1.30500e+03	9.47424e-01	1.48750e+02
1342	1.51867e+02	1.34200e+03	9.47394e-01	1.51833e+02
1379	1.54956e+02	1.37900e+03	9.47419e-01	1.54917e+02
1416	1.58054e+02	1.41600e+03	9.47347e-01	1.58000e+02
1453	1.61146e+02	1.45300e+03	9.47110e-01	1.61083e+02
1490	1.64224e+02	1.49000e+03	9.46643e-01	1.64167e+02
1527	1.67320e+02	1.52700e+03	9.46256e-01	1.67250e+02
1564	1.70417e+02	1.56400e+03	9.45398e-01	1.70333e+02
1601	1.73505e+02	1.60100e+03	9.44357e-01	1.73417e+02
1638	1.76588e+02	1.63800e+03	9.43107e-01	1.76500e+02
1675	1.79682e+02	1.67500e+03	9.41848e-01	1.79583e+02
1712	1.82768e+02	1.71200e+03	9.40333e-01	1.82667e+02
1749	1.85861e+02	1.74900e+03	9.38651e-01	1.85750e+02
1786	1.88953e+02	1.78600e+03	9.37009e-01	1.88833e+02
1823	1.92055e+02	1.82300e+03	9.35318e-01	1.91917e+02
1860	1.95134e+02	1.86000e+03	9.33646e-01	1.95000e+02
1897	1.98225e+02	1.89700e+03	9.31920e-01	1.98083e+02
1934	2.01308e+02	1.93400e+03	9.30216e-01	2.01167e+02
1971	2.04412e+02	1.97100e+03	9.28589e-01	2.04250e+02
2008	2.07501e+02	2.00800e+03	9.26830e-01	2.07333e+02
2045	2.10584e+02	2.04500e+03	9.25333e-01	2.10417e+02
2082	2.13669e+02	2.08200e+03	9.23624e-01	2.13500e+02
2119	2.16756e+02	2.11900e+03	9.22002e-01	2.16583e+02
2156	2.19854e+02	2.15600e+03	9.20341e-01	2.19667e+02
2193	2.22930e+02	2.19300e+03	9.18673e-01	2.22750e+02
2230	2.26006e+02	2.23000e+03	9.17169e-01	2.25833e+02
2267	2.29107e+02	2.26700e+03	9.15830e-01	2.28917e+02
2304	2.32179e+02	2.30400e+03	9.14398e-01	2.32000e+02
2341	2.35265e+02	2.34100e+03	9.13097e-01	2.35083e+02
2378	2.38357e+02	2.37800e+03	9.11851e-01	2.38167e+02
2415	2.41448e+02	2.41500e+03	9.10625e-01	2.41250e+02
2452	2.44527e+02	2.45200e+03	9.09422e-01	2.44333e+02
2489	2.47598e+02	2.48900e+03	9.08335e-01	2.47417e+02
2526	2.50688e+02	2.52600e+03	9.07317e-01	2.50500e+02
2563	2.53777e+02	2.56300e+03	9.06306e-01	2.53583e+02
2600	2.56861e+02	2.60000e+03	9.05197e-01	2.56667e+02
2637	2.59940e+02	2.63700e+03	9.03937e-01	2.59750e+02
2674	2.63022e+02	2.67400e+03	9.02850e-01	2.62833e+02
2711	2.66100e+02	2.71100e+03	9.01599e-01	2.65917e+02
2748	2.69187e+02	2.74800e+03	8.99947e-01	2.69000e+02
2785	2.72266e+02	2.78500e+03	8.98235e-01	2.72083e+02
2822	2.75349e+02	2.82200e+03	8.96228e-01	2.75167e+02
2859	2.78435e+02	2.85900e+03	8.93788e-01	2.78250e+02
2896	2.81511e+02	2.89600e+03	8.90865e-01	2.81333e+02
2933	2.84584e+02	2.93300e+03	8.87693e-01	2.84417e+02
2970	2.87657e+02	2.97000e+03	8.83985e-01	2.87500e+02
3007	2.90751e+02	3.00700e+03	8.79966e-01	2.90583e+02
3044	2.93816e+02	3.04400e+03	8.75648e-01	2.93667e+02
3081	2.96901e+02	3.08100e+03	8.71413e-01	2.96750e+02
3118	2.99962e+02	3.11800e+03	8.66972e-01	2.99833e+02
3155	3.03039e+02	3.15500e+03	8.62517e-01	3.02917e+02
3192	3.06129e+02	3.19200e+03	8.57723e-01	3.06000e+02
3229	3.09209e+02	3.22900e+03	8.52372e-01	3.09083e+02
3266	3.12278e+02	3.26600e+03	8.46508e-01	3.12167e+02
3303	3.15353e+02	3.30300e+03	8.39335e-01	3.15250e+02
3340	3.18424e+02	3.34000e+03	8.30501e-01	3.18333e+02
3377	3.21504e+02	3.37700e+03	8.20144e-01	3.21417e+02
3414	3.24569e+02	3.41400e+03	8.07333e-01	3.24500e+02
3451	3.27639e+02	3.45100e+03	7.91688e-01	3.27583e+02
3488	3.30712e+02	3.48800e+03	7.72482e-01	3.30667e+02
3525	3.33801e+02	3.52500e+03	7.49589e-01	3.33750e+02
3562	3.36859e+02	3.56200e+03	7.21897e-01	3.36833e+02
3599	3.39929e+02	3.59900e+03	6.88963e-01	3.39917e+02
3636	3.43005e+02	3.63600e+03	6.50883e-01	3.43000e+02
3673	3.46073e+02	3.67300e+03	6.06846e-01	3.46083e+02
3710	3.49158e+02	3.71000e+03	5.57621e-01	3.49167e+02
3747	3.52232e+02	3.74700e+03	5.04048e-01	3.52250e+02
3784	3.55304e+02	3.78400e+03	4.46850e-01	3.55333e+02
3821	3.58381e+02	3.82100e+03	3.88537e-01	3.58417e+02
3858	3.61447e+02	3.85800e+03	3.28269e-01	3.61500e+02
3895	3.64529e+02	3.89500e+03	2.69698e-01	3.64583e+02
3932	3.67605e+02	3.93200e+03	2.15201e-01	3.67667e+02
3969	3.70687e+02	3.96900e+03	1.66977e-01	3.70750e+02
4006	3.73770e+02	4.00600e+03	1.25934e-01	3.73833e+02
4043	3.76852e+02	4.04300e+03	9.21566e-02	3.76917e+02
4080	3.79933e+02	4.08000e+03	6.55891e-02	3.80000e+02
4117	3.83022e+02	4.11700e+03	4.51982e-02	3.83083e+02
4154	3.86087e+02	4.15400e+03	2.99833e-02	3.86167e+02
4191	3.89156e+02	4.19100e+03	1.91638e-02	3.89250e+02
4228	3.92234e+02	4.22800e+03	1.09086e-02	3.92333e+02
4265	3.95313e+02	4.26500e+03	5.36797e-03	3.95417e+02
4302	3.98382e+02	4.30200e+03	1.21598e-03	3.98500e+02
4339	4.01458e+02	4.33900e+03	-2.18413e-03	4.01583e+02
4376	4.04519e+02	4.37600e+03	-4.38663e-03	4.04667e+02
4413	4.07592e+02	4.41300e+03	-6.34012e-03	4.07750e+02
4450	4.10663e+02	4.45000e+03	-8.06276e-03	4.10833e+02
4487	4.13728e+02	4.48700e+03	-9.25982e-03	4.13917e+02
4524	4.16792e+02	4.52400e+03	-1.03324e-02	4.17000e+02
4561	4.19863e+02	4.56100e+03	-1.12582e-02	4.20083e+02
4598	4.22926e+02	4.59800e+03	-1.14994e-02	4.23167e+02
4635	4.25987e+02	4.63500e+03	-1.15584e-02	4.26250e+02
4672	4.29061e+02	4.67200e+03	-1.14175e-02	4.29333e+02
4709	4.32118e+02	4.70900e+03	-1.16978e-02	4.32417e+02
4746	4.35185e+02	4.74600e+03	-1.19333e-02	4.35500e+02
4783	4.38243e+02	4.78300e+03	-1.19640e-02	4.38583e+02
4820	4.41313e+02	4.82000e+03	-1.27759e-02	4.41667e+02
4857	4.44374e+02	4.85700e+03	-1.21149e-02	4.44750e+02
4894	4.47445e+02	4.89400e+03	-1.22573e-02	4.47833e+02
4931	4.50505e+02	4.93100e+03	-1.23611e-02	4.50917e+02
4968	4.53576e+02	4.96800e+03	-1.22772e-02	4.54000e+02
5005	4.56636e+02	5.00500e+03	-1.24975e-02	4.57083e+02
5042	4.59686e+02	5.04200e+03	-1.24785e-02	4.60167e+02
5079	4.62740e+02	5.07900e+03	-1.23598e-02	4.63250e+02
5116	4.65797e+02	5.11600e+03	-1.23258e-02	4.66333e+02
5153	4.68861e+02	5.15300e+03	-1.24411e-02	4.69417e+02
5190	4.71923e+02	5.19000e+03	-1.23825e-02	4.72500e+02
5227	4.74986e+02	5.22700e+03	-1.21231e-02	4.75583e+02
5264	4.78047e+02	5.26400e+03	-1.23643e-02	4.78667e+02
5301	4.81097e+02	5.30100e+03	-1.24731e-02	4.81750e+02
5338	4.84157e+02	5.33800e+03	-1.23959e-02	4.84833e+02
5375	4.87222e+02	5.37500e+03	-1.24729e-02	4.87917e+02
5412	4.90278e+02	5.41200e+03	-1.24504e-02	4.91000e+02
5449	4.93345e+02	5.44900e+03	-1.24477e-02	4.94083e+02
5486	4.96412e+02	5.48600e+03	-1.24969e-02	4.97167e+02
5523	4.99471e+02	5.52300e+03	-1.26398e-02	5.00250e+02
5560	5.02562e+02	5.56000e+03	-1.25575e-02	5.03333e+02
5597	5.05626e+02	5.59700e+03	-1.25777e-02	5.06417e+02
5634	5.08696e+02	5.63400e+03	-1.24463e-02	5.09500e+02
5671	5.11770e+02	5.67100e+03	-1.25224e-02	5.12583e+02
5708	5.14838e+02	5.70800e+03	-1.24909e-02	5.15667e+02
5745	5.17912e+02	5.74500e+03	-1.24774e-02	5.18750e+02
5782	5.20977e+02	5.78200e+03	-1.25001e-02	5.21833e+02
5819	5.24059e+02	5.81900e+03	-1.25879e-02	5.24917e+02
5856	5.27125e+02	5.85600e+03	-1.27020e-02	5.28000e+02
5893	5.30203e+02	5.89300e+03	-1.24440e-02	5.31083e+02
5930	5.33275e+02	5.93000e+03	-1.27785e-02	5.34167e+02
5967	5.36364e+02	5.96700e+03	-1.26174e-02	5.37250e+02
6004	5.39434e+02	6.00400e+03	-1.26534e-02	5.40333e+02
6041	5.42502e+02	6.04100e+03	-1.28073e-02	5.43417e+02
6078	5.45588e+02	6.07800e+03	-1.25553e-02	5.46500e+02
6115	5.48652e+02	6.11500e+03	-1.27866e-02	5.49583e+02
6152	5.51731e+02	6.15200e+03	-1.27279e-02	5.52667e+02
6189	5.54821e+02	6.18900e+03	-1.26301e-02	5.55750e+02
6226	5.57900e+02	6.22600e+03	-1.26940e-02	5.58833e+02
6263	5.60984e+02	6.26300e+03	-1.28202e-02	5.61917e+02
6300	5.64065e+02	6.30000e+03	-1.28549e-02	5.65000e+02
6337	5.67146e+02	6.33700e+03	-1.29180e-02	5.68083e+02
6374	5.70209e+02	6.37400e+03	-1.27530e-02	5.71167e+02
6411	5.73298e+02	6.41100e+03	-1.26365e-02	5.74250e+02
6448	5.76388e+02	6.44800e+03	-1.27551e-02	5.77333e+02
6485	5.79469e+02	6.48500e+03	-1.28096e-02	5.80417e+02
6522	5.82553e+02	6.52200e+03	-1.27355e-02	5.83500e+02
6559	5.85634e+02	6.55900e+03	-1.29343e-02	5.86583e+02
6596	5.88711e+02	6.59600e+03	-1.28993e-02	5.89667e+02
6633	5.91802e+02	6.63300e+03	-1.30405e-02	5.92750e+02
6670	5.94881e+02	6.67000e+03	-1.30548e-02	5.95833e+02
6707	5.97979e+02	6.70700e+03	-1.29694e-02	5.98917e+02
6744	6.01055e+02	6.74400e+03	-1.30788e-02	6.02000e+02
6781	6.04140e+02	6.78100e+03	-1.32741e-02	6.05083e+02
6818	6.07221e+02	6.81800e+03	-1.32018e-02	6.08167e+02
6855	6.10327e+02	6.85500e+03	-1.31928e-02	6.11250e+02
6892	6.13434e+02	6.89200e+03	-1.31867e-02	6.14333e+02
6929	6.16516e+02	6.92900e+03	-1.33453e-02	6.17417e+02
6966	6.19612e+02	6.96600e+03	-1.32242e-02	6.20500e+02
7003	6.22673e+02	7.00300e+03	-1.32494e-02	6.23583e+02
7040	6.25771e+02	7.04000e+03	-1.32487e-02	6.26667e+02
7077	6.28852e+02	7.07700e+03	-1.32704e-02	6.29750e+02
7114	6.31949e+02	7.11400e+03	-1.32196e-02	6.32833e+02
7151	6.35052e+02	7.15100e+03	-1.33448e-02	6.35917e+02
7188	6.38130e+02	7.18800e+03	-1.33431e-02	6.39000e+02
7225	6.41240e+02	7.22500e+03	-1.34210e-02	6.42083e+02
7262	6.44333e+02	7.26200e+03	-1.34546e-02	6.45167e+02
7299	6.47426e+02	7.29900e+03	-1.35224e-02	6.48250e+02
7336	6.50517e+02	7.33600e+03	-1.33430e-02	6.51333e+02
7373	6.53611e+02	7.37300e+03	-1.33903e-02	6.54417e+02
7410	6.56692e+02	7.41000e+03	-1.33788e-02	6.57500e+02
7447	6.59788e+02	7.44700e+03	-1.34392e-02	6.60583e+02
7484	6.62873e+02	7.48400e+03	-1.36008e-02	6.63667e+02
7521	6.65980e+02	7.52100e+03	-1.33226e-02	6.66750e+02
7558	6.69077e+02	7.55800e+03	-1.31577e-02	6.69833e+02
7595	6.72157e+02	7.59500e+03	-1.30952e-02	6.72917e+02
7632	6.75226e+02	7.63200e+03	-1.32841e-02	6.76000e+02
7669	6.78333e+02	7.66900e+03	-1.31886e-02	6.79083e+02
7706	6.81420e+02	7.70600e+03	-1.32414e-02	6.82167e+02
7743	6.84513e+02	7.74300e+03	-1.31945e-02	6.85250e+02
7780	6.87625e+02	7.78000e+03	-1.29852e-02	6.88333e+02
7817	6.90713e+02	7.81700e+03	-1.30117e-02	6.91417e+02
7854	6.93801e+02	7.85400e+03	-1.28662e-02	6.94500e+02
7891	6.96905e+02	7.89100e+03	-1.30121e-02	6.97583e+02
7920	6.98387e+02	7.92000e+03	-1.30987e-02	7.00000e+02