Folder: Pyrolysis_BESKID/Experiments/TUBS/tga_isotherm (part 2)

File: tga_isotherm_n2_iso300_powder_3mg_r3.txt
index	ts	t	weight	tr
[#]	[°C]	[s]	[mg]	[°C]
900	1.21772e+02	9.00000e+02	3.05921e+00	9.00000e+01
1061	2.80762e+02	1.06100e+03	2.89762e+00	3.00000e+02
1216	3.00446e+02	1.21600e+03	2.79824e+00	3.00000e+02
1371	3.02925e+02	1.37100e+03	2.73530e+00	3.00000e+02
1526	3.03199e+02	1.52600e+03	2.69233e+00	3.00000e+02
1681	3.03206e+02	1.68100e+03	2.65603e+00	3.00000e+02
1836	3.03188e+02	1.83600e+03	2.62345e+00	3.00000e+02
1991	3.03154e+02	1.99100e+03	2.59317e+00	3.00000e+02
2146	3.03153e+02	2.14600e+03	2.56466e+00	3.00000e+02
2301	3.03144e+02	2.30100e+03	2.53810e+00	3.00000e+02
2456	3.03125e+02	2.45600e+03	2.51215e+00	3.00000e+02
2611	3.03144e+02	2.61100e+03	2.48809e+00	3.00000e+02
2766	3.03136e+02	2.76600e+03	2.46469e+00	3.00000e+02
2921	3.03121e+02	2.92100e+03	2.44254e+00	3.00000e+02
3076	3.03119e+02	3.07600e+03	2.42098e+00	3.00000e+02
3231	3.03119e+02	3.23100e+03	2.39993e+00	3.00000e+02
3386	3.03116e+02	3.38600e+03	2.37960e+00	3.00000e+02
3541	3.03118e+02	3.54100e+03	2.35976e+00	3.00000e+02
3696	3.03121e+02	3.69600e+03	2.34072e+00	3.00000e+02
3851	3.03092e+02	3.85100e+03	2.32192e+00	3.00000e+02
4006	3.03110e+02	4.00600e+03	2.30355e+00	3.00000e+02
4161	3.03113e+02	4.16100e+03	2.28569e+00	3.00000e+02
4316	3.03107e+02	4.31600e+03	2.26789e+00	3.00000e+02
4471	3.03129e+02	4.47100e+03	2.25032e+00	3.00000e+02
4626	3.03125e+02	4.62600e+03	2.23359e+00	3.00000e+02
4781	3.03123e+02	4.78100e+03	2.21678e+00	3.00000e+02
4936	3.03121e+02	4.93600e+03	2.20072e+00	3.00000e+02
5091	3.03113e+02	5.09100e+03	2.18446e+00	3.00000e+02
5246	3.03100e+02	5.24600e+03	2.16886e+00	3.00000e+02
5401	3.03104e+02	5.40100e+03	2.15354e+00	3.00000e+02
5556	3.03109e+02	5.55600e+03	2.13812e+00	3.00000e+02
5711	3.03091e+02	5.71100e+03	2.12317e+00	3.00000e+02
5866	3.03100e+02	5.86600e+03	2.10814e+00	3.00000e+02
6021	3.03103e+02	6.02100e+03	2.09407e+00	3.00000e+02
6176	3.03108e+02	6.17600e+03	2.07970e+00	3.00000e+02
6331	3.03112e+02	6.33100e+03	2.06541e+00	3.00000e+02
6486	3.03104e+02	6.48600e+03	2.05176e+00	3.00000e+02
6641	3.03108e+02	6.64100e+03	2.03802e+00	3.00000e+02
6796	3.03104e+02	6.79600e+03	2.02451e+00	3.00000e+02
6951	3.03104e+02	6.95100e+03	2.01135e+00	3.00000e+02
7106	3.03110e+02	7.10600e+03	1.99832e+00	3.00000e+02
7261	3.03115e+02	7.26100e+03	1.98539e+00	3.00000e+02
7416	3.03111e+02	7.41600e+03	1.97285e+00	3.00000e+02
7571	3.03106e+02	7.57100e+03	1.96031e+00	3.00000e+02
7726	3.03109e+02	7.72600e+03	1.94808e+00	3.00000e+02
7881	3.03119e+02	7.88100e+03	1.93606e+00	3.00000e+02
8036	3.03114e+02	8.03600e+03	1.92380e+00	3.00000e+02
8191	3.03116e+02	8.19100e+03	1.91217e+00	3.00000e+02
8346	3.03107e+02	8.34600e+03	1.90054e+00	3.00000e+02
8501	3.03107e+02	8.50100e+03	1.88890e+00	3.00000e+02
8656	3.03098e+02	8.65600e+03	1.87777e+00	3.00000e+02
8811	3.03102e+02	8.81100e+03	1.86660e+00	3.00000e+02
8966	3.03099e+02	8.96600e+03	1.85552e+00	3.00000e+02
9121	3.03119e+02	9.12100e+03	1.84478e+00	3.00000e+02
9276	3.03101e+02	9.27600e+03	1.83387e+00	3.00000e+02
9431	3.03102e+02	9.43100e+03	1.82332e+00	3.00000e+02
9586	3.03111e+02	9.58600e+03	1.81290e+00	3.00000e+02
9741	3.03105e+02	9.74100e+03	1.80256e+00	3.00000e+02
9896	3.03106e+02	9.89600e+03	1.79234e+00	3.00000e+02
10051	3.03114e+02	1.00510e+04	1.78222e+00	3.00000e+02
10206	3.03108e+02	1.02060e+04	1.77219e+00	3.00000e+02
10361	3.03109e+02	1.03610e+04	1.76239e+00	3.00000e+02
10516	3.03098e+02	1.05160e+04	1.75256e+00	3.00000e+02
10671	3.03097e+02	1.06710e+04	1.74291e+00	3.00000e+02
10826	3.03107e+02	1.08260e+04	1.73330e+00	3.00000e+02
10981	3.03094e+02	1.09810e+04	1.72383e+00	3.00000e+02
11136	3.03103e+02	1.11360e+04	1.71463e+00	3.00000e+02
11291	3.03092e+02	1.12910e+04	1.70550e+00	3.00000e+02
11446	3.03089e+02	1.14460e+04	1.69630e+00	3.00000e+02
11601	3.03084e+02	1.16010e+04	1.68742e+00	3.00000e+02
11756	3.03101e+02	1.17560e+04	1.67855e+00	3.00000e+02
11911	3.03080e+02	1.19110e+04	1.66977e+00	3.00000e+02
12066	3.03094e+02	1.20660e+04	1.66091e+00	3.00000e+02
12221	3.03105e+02	1.22210e+04	1.65248e+00	3.00000e+02
12376	3.03095e+02	1.23760e+04	1.64382e+00	3.00000e+02
12531	3.03096e+02	1.25310e+04	1.63527e+00	3.00000e+02
12686	3.03092e+02	1.26860e+04	1.62696e+00	3.00000e+02
12841	3.03094e+02	1.28410e+04	1.61873e+00	3.00000e+02
12996	3.03090e+02	1.29960e+04	1.61060e+00	3.00000e+02
13151	3.03089e+02	1.31510e+04	1.60249e+00	3.00000e+02
13306	3.03086e+02	1.33060e+04	1.59405e+00	3.00000e+02
13461	3.03098e+02	1.34610e+04	1.58627e+00	3.00000e+02
13616	3.03085e+02	1.36160e+04	1.57822e+00	3.00000e+02
13771	3.03089e+02	1.37710e+04	1.57041e+00	3.00000e+02
13926	3.03080e+02	1.39260e+04	1.56258e+00	3.00000e+02
14081	3.03075e+02	1.40810e+04	1.55509e+00	3.00000e+02
14236	3.03088e+02	1.42360e+04	1.54724e+00	3.00000e+02
14391	3.03082e+02	1.43910e+04	1.54005e+00	3.00000e+02
14546	3.03082e+02	1.45460e+04	1.53244e+00	3.00000e+02
14701	3.03078e+02	1.47010e+04	1.52510e+00	3.00000e+02
14856	3.03078e+02	1.48560e+04	1.51789e+00	3.00000e+02
15011	3.03087e+02	1.50110e+04	1.51075e+00	3.00000e+02
15166	3.03081e+02	1.51660e+04	1.50389e+00	3.00000e+02
15321	3.03094e+02	1.53210e+04	1.49632e+00	3.00000e+02
15476	3.03104e+02	1.54760e+04	1.48965e+00	3.00000e+02
15631	3.03092e+02	1.56310e+04	1.48271e+00	3.00000e+02
15786	3.03079e+02	1.57860e+04	1.47581e+00	3.00000e+02
15941	3.03078e+02	1.59410e+04	1.46888e+00	3.00000e+02
16096	3.03075e+02	1.60960e+04	1.46218e+00	3.00000e+02
16251	3.03084e+02	1.62510e+04	1.45558e+00	3.00000e+02
16406	3.03073e+02	1.64060e+04	1.44882e+00	3.00000e+02
16561	3.03081e+02	1.65610e+04	1.44223e+00	3.00000e+02
16716	3.03068e+02	1.67160e+04	1.43569e+00	3.00000e+02
16871	3.03065e+02	1.68710e+04	1.42896e+00	3.00000e+02
17026	3.03082e+02	1.70260e+04	1.42242e+00	3.00000e+02
17181	3.03079e+02	1.71810e+04	1.41600e+00	3.00000e+02
17336	3.03075e+02	1.73360e+04	1.40982e+00	3.00000e+02
17491	3.03084e+02	1.74910e+04	1.40340e+00	3.00000e+02
17646	3.03078e+02	1.76460e+04	1.39709e+00	3.00000e+02
17801	3.03084e+02	1.78010e+04	1.39092e+00	3.00000e+02
17956	3.03081e+02	1.79560e+04	1.38479e+00	3.00000e+02
18111	3.03086e+02	1.81110e+04	1.37890e+00	3.00000e+02
18266	3.03065e+02	1.82660e+04	1.37281e+00	3.00000e+02
18421	3.03070e+02	1.84210e+04	1.36691e+00	3.00000e+02
18576	3.03080e+02	1.85760e+04	1.36102e+00	3.00000e+02
18731	3.03086e+02	1.87310e+04	1.35522e+00	3.00000e+02
18886	3.03085e+02	1.88860e+04	1.34951e+00	3.00000e+02
19041	3.03084e+02	1.90410e+04	1.34378e+00	3.00000e+02
19196	3.03070e+02	1.91960e+04	1.33785e+00	3.00000e+02
19351	3.03087e+02	1.93510e+04	1.33227e+00	3.00000e+02
19506	3.03081e+02	1.95060e+04	1.32639e+00	3.00000e+02
19661	3.03083e+02	1.96610e+04	1.32068e+00	3.00000e+02
19816	3.03081e+02	1.98160e+04	1.31517e+00	3.00000e+02
19971	3.03087e+02	1.99710e+04	1.30960e+00	3.00000e+02
20126	3.03073e+02	2.01260e+04	1.30415e+00	3.00000e+02
20281	3.03066e+02	2.02810e+04	1.29867e+00	3.00000e+02
20436	3.03073e+02	2.04360e+04	1.29315e+00	3.00000e+02
20591	3.03073e+02	2.05910e+04	1.28769e+00	3.00000e+02
20746	3.03079e+02	2.07460e+04	1.28253e+00	3.00000e+02
20901	3.03075e+02	2.09010e+04	1.27728e+00	3.00000e+02
21056	3.03057e+02	2.10560e+04	1.27215e+00	3.00000e+02
21211	3.03078e+02	2.12110e+04	1.26671e+00	3.00000e+02
21366	3.03072e+02	2.13660e+04	1.26181e+00	3.00000e+02
21521	3.03072e+02	2.15210e+04	1.25665e+00	3.00000e+02
21676	3.03089e+02	2.16760e+04	1.25168e+00	3.00000e+02
21831	3.03073e+02	2.18310e+04	1.24642e+00	3.00000e+02
21986	3.03083e+02	2.19860e+04	1.24173e+00	3.00000e+02
22141	3.03070e+02	2.21410e+04	1.23667e+00	3.00000e+02
22296	3.03071e+02	2.22960e+04	1.23188e+00	3.00000e+02
22451	3.03064e+02	2.24510e+04	1.22706e+00	3.00000e+02
22606	3.03078e+02	2.26060e+04	1.22223e+00	3.00000e+02
22761	3.03071e+02	2.27610e+04	1.21727e+00	3.00000e+02
22916	3.03073e+02	2.29160e+04	1.21248e+00	3.00000e+02
23071	3.03082e+02	2.30710e+04	1.20764e+00	3.00000e+02
23226	3.03057e+02	2.32260e+04	1.20289e+00	3.00000e+02
23381	3.03061e+02	2.33810e+04	1.19812e+00	3.00000e+02
23536	3.03074e+02	2.35360e+04	1.19349e+00	3.00000e+02
23691	3.03067e+02	2.36910e+04	1.18906e+00	3.00000e+02
23846	3.03074e+02	2.38460e+04	1.18439e+00	3.00000e+02
24001	3.03061e+02	2.40010e+04	1.17968e+00	3.00000e+02
24156	3.03065e+02	2.41560e+04	1.17524e+00	3.00000e+02
24311	3.03069e+02	2.43110e+04	1.17083e+00	3.00000e+02
24466	3.03069e+02	2.44660e+04	1.16617e+00	3.00000e+02
24621	3.03060e+02	2.46210e+04	1.16175e+00	3.00000e+02
24776	3.03064e+02	2.47760e+04	1.15731e+00	3.00000e+02
24931	3.03064e+02	2.49310e+04	1.15307e+00	3.00000e+02
25086	3.03069e+02	2.50860e+04	1.14878e+00	3.00000e+02
25241	3.03075e+02	2.52410e+04	1.14444e+00	3.00000e+02
25396	3.03068e+02	2.53960e+04	1.14032e+00	3.00000e+02
25551	3.03072e+02	2.55510e+04	1.13593e+00	3.00000e+02
25706	3.03063e+02	2.57060e+04	1.13167e+00	3.00000e+02
25861	3.03060e+02	2.58610e+04	1.12774e+00	3.00000e+02
26016	3.03066e+02	2.60160e+04	1.12359e+00	3.00000e+02
26171	3.03072e+02	2.61710e+04	1.11937e+00	3.00000e+02
26326	3.03074e+02	2.63260e+04	1.11529e+00	3.00000e+02
26481	3.03070e+02	2.64810e+04	1.11115e+00	3.00000e+02
26636	3.03073e+02	2.66360e+04	1.10716e+00	3.00000e+02
26791	3.03075e+02	2.67910e+04	1.10303e+00	3.00000e+02
26946	3.03063e+02	2.69460e+04	1.09903e+00	3.00000e+02
27101	3.03065e+02	2.71010e+04	1.09523e+00	3.00000e+02
27256	3.03066e+02	2.72560e+04	1.09106e+00	3.00000e+02
27411	3.03060e+02	2.74110e+04	1.08722e+00	3.00000e+02
27566	3.03058e+02	2.75660e+04	1.08337e+00	3.00000e+02
27721	3.03076e+02	2.77210e+04	1.07961e+00	3.00000e+02
27876	3.03060e+02	2.78760e+04	1.07560e+00	3.00000e+02
28031	3.03068e+02	2.80310e+04	1.07168e+00	3.00000e+02
28186	3.03069e+02	2.81860e+04	1.06812e+00	3.00000e+02
28341	3.03066e+02	2.83410e+04	1.06426e+00	3.00000e+02
28496	3.03056e+02	2.84960e+04	1.06037e+00	3.00000e+02
28651	3.03051e+02	2.86510e+04	1.05690e+00	3.00000e+02
28806	3.03060e+02	2.88060e+04	1.05323e+00	3.00000e+02
28961	3.03063e+02	2.89610e+04	1.04954e+00	3.00000e+02
29116	3.03051e+02	2.91160e+04	1.04589e+00	3.00000e+02
29271	3.03054e+02	2.92710e+04	1.04239e+00	3.00000e+02
29426	3.03056e+02	2.94260e+04	1.03879e+00	3.00000e+02
29581	3.03059e+02	2.95810e+04	1.03511e+00	3.00000e+02
29731	3.03058e+02	2.97310e+04	1.03138e+00	3.00000e+02

File: tga_isotherm_n2_iso320_piece_3mg_r2.txt
index	ts	t	weight	tr
[#]	[°C]	[s]	[mg]	[°C]
900	1.23496e+02	9.00000e+02	2.98384e+00	9.00000e+01
1059	2.96809e+02	1.05900e+03	2.88167e+00	3.20000e+02
1214	3.20364e+02	1.21400e+03	2.72137e+00	3.20000e+02
1369	3.23061e+02	1.36900e+03	2.59176e+00	3.20000e+02
1524	3.23328e+02	1.52400e+03	2.46726e+00	3.20000e+02
1679	3.23343e+02	1.67900e+03	2.35194e+00	3.20000e+02
1834	3.23326e+02	1.83400e+03	2.24632e+00	3.20000e+02
1989	3.23298e+02	1.98900e+03	2.14965e+00	3.20000e+02
2144	3.23289e+02	2.14400e+03	2.06113e+00	3.20000e+02
2299	3.23295e+02	2.29900e+03	1.97944e+00	3.20000e+02
2454	3.23275e+02	2.45400e+03	1.90419e+00	3.20000e+02
2609	3.23267e+02	2.60900e+03	1.83492e+00	3.20000e+02
2764	3.23267e+02	2.76400e+03	1.77022e+00	3.20000e+02
2919	3.23281e+02	2.91900e+03	1.70971e+00	3.20000e+02
3074	3.23270e+02	3.07400e+03	1.65321e+00	3.20000e+02
3229	3.23270e+02	3.22900e+03	1.59982e+00	3.20000e+02
3384	3.23271e+02	3.38400e+03	1.55007e+00	3.20000e+02
3539	3.23271e+02	3.53900e+03	1.50324e+00	3.20000e+02
3694	3.23251e+02	3.69400e+03	1.45846e+00	3.20000e+02
3849	3.23241e+02	3.84900e+03	1.41681e+00	3.20000e+02
4004	3.23252e+02	4.00400e+03	1.37638e+00	3.20000e+02
4159	3.23257e+02	4.15900e+03	1.33845e+00	3.20000e+02
4314	3.23235e+02	4.31400e+03	1.30214e+00	3.20000e+02
4469	3.23254e+02	4.46900e+03	1.26862e+00	3.20000e+02
4624	3.23249e+02	4.62400e+03	1.23472e+00	3.20000e+02
4779	3.23236e+02	4.77900e+03	1.20380e+00	3.20000e+02
4934	3.23241e+02	4.93400e+03	1.17238e+00	3.20000e+02
5089	3.23234e+02	5.08900e+03	1.14359e+00	3.20000e+02
5244	3.23221e+02	5.24400e+03	1.11574e+00	3.20000e+02
5399	3.23230e+02	5.39900e+03	1.08918e+00	3.20000e+02
5554	3.23236e+02	5.55400e+03	1.06331e+00	3.20000e+02
5709	3.23230e+02	5.70900e+03	1.03863e+00	3.20000e+02
5864	3.23210e+02	5.86400e+03	1.01502e+00	3.20000e+02
6019	3.23209e+02	6.01900e+03	9.92037e-01	3.20000e+02
6174	3.23213e+02	6.17400e+03	9.70354e-01	3.20000e+02
6329	3.23215e+02	6.32900e+03	9.48844e-01	3.20000e+02
6484	3.23201e+02	6.48400e+03	9.28432e-01	3.20000e+02
6639	3.23211e+02	6.63900e+03	9.08763e-01	3.20000e+02
6794	3.23201e+02	6.79400e+03	8.89887e-01	3.20000e+02
6949	3.23211e+02	6.94900e+03	8.71451e-01	3.20000e+02
7104	3.23205e+02	7.10400e+03	8.53814e-01	3.20000e+02
7259	3.23201e+02	7.25900e+03	8.36694e-01	3.20000e+02
7414	3.23196e+02	7.41400e+03	8.20030e-01	3.20000e+02
7569	3.23192e+02	7.56900e+03	8.03909e-01	3.20000e+02
7724	3.23192e+02	7.72400e+03	7.88730e-01	3.20000e+02
7879	3.23198e+02	7.87900e+03	7.73706e-01	3.20000e+02
8034	3.23201e+02	8.03400e+03	7.59352e-01	3.20000e+02
8189	3.23193e+02	8.18900e+03	7.45585e-01	3.20000e+02
8344	3.23208e+02	8.34400e+03	7.32341e-01	3.20000e+02
8499	3.23197e+02	8.49900e+03	7.18994e-01	3.20000e+02
8654	3.23193e+02	8.65400e+03	7.06392e-01	3.20000e+02
8809	3.23196e+02	8.80900e+03	6.94247e-01	3.20000e+02
8964	3.23199e+02	8.96400e+03	6.82360e-01	3.20000e+02
9119	3.23178e+02	9.11900e+03	6.70853e-01	3.20000e+02
9274	3.23191e+02	9.27400e+03	6.59759e-01	3.20000e+02
9429	3.23187e+02	9.42900e+03	6.48759e-01	3.20000e+02
9584	3.23195e+02	9.58400e+03	6.38116e-01	3.20000e+02
9739	3.23195e+02	9.73900e+03	6.27847e-01	3.20000e+02
9894	3.23196e+02	9.89400e+03	6.17779e-01	3.20000e+02
10049	3.23198e+02	1.00490e+04	6.08388e-01	3.20000e+02
10204	3.23195e+02	1.02040e+04	5.98977e-01	3.20000e+02
10359	3.23179e+02	1.03590e+04	5.89865e-01	3.20000e+02
10514	3.23179e+02	1.05140e+04	5.80927e-01	3.20000e+02
10669	3.23173e+02	1.06690e+04	5.72225e-01	3.20000e+02
10824	3.23180e+02	1.08240e+04	5.63893e-01	3.20000e+02
10979	3.23179e+02	1.09790e+04	5.55698e-01	3.20000e+02
11134	3.23169e+02	1.11340e+04	5.47759e-01	3.20000e+02
11289	3.23180e+02	1.12890e+04	5.40044e-01	3.20000e+02
11444	3.23188e+02	1.14440e+04	5.32337e-01	3.20000e+02
11599	3.23187e+02	1.15990e+04	5.25023e-01	3.20000e+02
11754	3.23177e+02	1.17540e+04	5.17611e-01	3.20000e+02
11909	3.23173e+02	1.19090e+04	5.10793e-01	3.20000e+02
12064	3.23183e+02	1.20640e+04	5.03803e-01	3.20000e+02
12219	3.23187e+02	1.22190e+04	4.96899e-01	3.20000e+02
12374	3.23185e+02	1.23740e+04	4.90057e-01	3.20000e+02
12529	3.23185e+02	1.25290e+04	4.83993e-01	3.20000e+02
12684	3.23181e+02	1.26840e+04	4.77765e-01	3.20000e+02
12839	3.23182e+02	1.28390e+04	4.71884e-01	3.20000e+02
12994	3.23182e+02	1.29940e+04	4.66093e-01	3.20000e+02
13149	3.23182e+02	1.31490e+04	4.60172e-01	3.20000e+02
13304	3.23199e+02	1.33040e+04	4.54449e-01	3.20000e+02
13459	3.23187e+02	1.34590e+04	4.48838e-01	3.20000e+02
13614	3.23187e+02	1.36140e+04	4.43377e-01	3.20000e+02
13769	3.23171e+02	1.37690e+04	4.38453e-01	3.20000e+02
13924	3.23179e+02	1.39240e+04	4.33082e-01	3.20000e+02
14079	3.23174e+02	1.40790e+04	4.28246e-01	3.20000e+02
14234	3.23178e+02	1.42340e+04	4.23098e-01	3.20000e+02
14389	3.23182e+02	1.43890e+04	4.18031e-01	3.20000e+02
14544	3.23167e+02	1.45440e+04	4.13276e-01	3.20000e+02
14699	3.23172e+02	1.46990e+04	4.08612e-01	3.20000e+02
14854	3.23167e+02	1.48540e+04	4.04184e-01	3.20000e+02
15009	3.23157e+02	1.50090e+04	3.99672e-01	3.20000e+02
15164	3.23163e+02	1.51640e+04	3.95331e-01	3.20000e+02
15319	3.23141e+02	1.53190e+04	3.91092e-01	3.20000e+02
15474	3.23147e+02	1.54740e+04	3.86566e-01	3.20000e+02
15629	3.23135e+02	1.56290e+04	3.82727e-01	3.20000e+02
15784	3.23130e+02	1.57840e+04	3.78539e-01	3.20000e+02
15939	3.23115e+02	1.59390e+04	3.74805e-01	3.20000e+02
16094	3.23110e+02	1.60940e+04	3.70967e-01	3.20000e+02
16249	3.23085e+02	1.62490e+04	3.66830e-01	3.20000e+02
16404	3.23079e+02	1.64040e+04	3.62994e-01	3.20000e+02
16559	3.23060e+02	1.65590e+04	3.59118e-01	3.20000e+02
16714	3.23046e+02	1.67140e+04	3.55435e-01	3.20000e+02
16869	3.23045e+02	1.68690e+04	3.52115e-01	3.20000e+02
17024	3.23030e+02	1.70240e+04	3.48482e-01	3.20000e+02
17179	3.23021e+02	1.71790e+04	3.45250e-01	3.20000e+02
17334	3.23020e+02	1.73340e+04	3.41610e-01	3.20000e+02
17489	3.22993e+02	1.74890e+04	3.38088e-01	3.20000e+02
17644	3.22994e+02	1.76440e+04	3.34935e-01	3.20000e+02
17799	3.23002e+02	1.77990e+04	3.31644e-01	3.20000e+02
17954	3.22997e+02	1.79540e+04	3.28384e-01	3.20000e+02
18109	3.22988e+02	1.81090e+04	3.25467e-01	3.20000e+02
18264	3.22980e+02	1.82640e+04	3.22729e-01	3.20000e+02
18419	3.23000e+02	1.84190e+04	3.19545e-01	3.20000e+02
18574	3.22982e+02	1.85740e+04	3.16514e-01	3.20000e+02
18729	3.22989e+02	1.87290e+04	3.13842e-01	3.20000e+02
18884	3.22981e+02	1.88840e+04	3.10626e-01	3.20000e+02
19039	3.22971e+02	1.90390e+04	3.07980e-01	3.20000e+02
19194	3.22974e+02	1.91940e+04	3.05194e-01	3.20000e+02
19349	3.22979e+02	1.93490e+04	3.02257e-01	3.20000e+02
19504	3.22973e+02	1.95040e+04	2.99858e-01	3.20000e+02
19659	3.22964e+02	1.96590e+04	2.96986e-01	3.20000e+02
19814	3.22972e+02	1.98140e+04	2.94413e-01	3.20000e+02
19969	3.22984e+02	1.99690e+04	2.92047e-01	3.20000e+02
20124	3.22974e+02	2.01240e+04	2.89374e-01	3.20000e+02
20279	3.22976e+02	2.02790e+04	2.87060e-01	3.20000e+02
20434	3.22975e+02	2.04340e+04	2.84588e-01	3.20000e+02
20589	3.22979e+02	2.05890e+04	2.82120e-01	3.20000e+02
20744	3.22974e+02	2.07440e+04	2.79826e-01	3.20000e+02
20899	3.22975e+02	2.08990e+04	2.77346e-01	3.20000e+02
21054	3.22973e+02	2.10540e+04	2.75119e-01	3.20000e+02
21209	3.22979e+02	2.12090e+04	2.72582e-01	3.20000e+02
21364	3.22968e+02	2.13640e+04	2.70344e-01	3.20000e+02
21519	3.22985e+02	2.15190e+04	2.68269e-01	3.20000e+02
21674	3.22970e+02	2.16740e+04	2.66113e-01	3.20000e+02
21829	3.22976e+02	2.18290e+04	2.63858e-01	3.20000e+02
21984	3.22964e+02	2.19840e+04	2.62046e-01	3.20000e+02
22139	3.22971e+02	2.21390e+04	2.59727e-01	3.20000e+02
22294	3.22968e+02	2.22940e+04	2.57790e-01	3.20000e+02
22449	3.22963e+02	2.24490e+04	2.56013e-01	3.20000e+02
22604	3.22975e+02	2.26040e+04	2.53817e-01	3.20000e+02
22759	3.22990e+02	2.27590e+04	2.51892e-01	3.20000e+02
22914	3.22984e+02	2.29140e+04	2.49987e-01	3.20000e+02
23069	3.22978e+02	2.30690e+04	2.48014e-01	3.20000e+02
23224	3.22969e+02	2.32240e+04	2.46326e-01	3.20000e+02
23379	3.22968e+02	2.33790e+04	2.44384e-01	3.20000e+02
23534	3.22982e+02	2.35340e+04	2.42568e-01	3.20000e+02
23689	3.22975e+02	2.36890e+04	2.40793e-01	3.20000e+02
23844	3.22991e+02	2.38440e+04	2.39076e-01	3.20000e+02
23999	3.22992e+02	2.39990e+04	2.37017e-01	3.20000e+02
24154	3.22987e+02	2.41540e+04	2.35371e-01	3.20000e+02
24309	3.22982e+02	2.43090e+04	2.33733e-01	3.20000e+02
24464	3.22985e+02	2.44640e+04	2.31798e-01	3.20000e+02
24619	3.22982e+02	2.46190e+04	2.30553e-01	3.20000e+02
24774	3.22990e+02	2.47740e+04	2.28918e-01	3.20000e+02
24929	3.22984e+02	2.49290e+04	2.26911e-01	3.20000e+02
25084	3.22986e+02	2.50840e+04	2.25495e-01	3.20000e+02
25239	3.22998e+02	2.52390e+04	2.24093e-01	3.20000e+02
25394	3.22990e+02	2.53940e+04	2.22422e-01	3.20000e+02
25549	3.22987e+02	2.55490e+04	2.21286e-01	3.20000e+02
25704	3.23003e+02	2.57040e+04	2.19690e-01	3.20000e+02
25859	3.22986e+02	2.58590e+04	2.18196e-01	3.20000e+02
26014	3.22991e+02	2.60140e+04	2.16581e-01	3.20000e+02
26169	3.22990e+02	2.61690e+04	2.15047e-01	3.20000e+02
26324	3.22992e+02	2.63240e+04	2.13537e-01	3.20000e+02
26479	3.22971e+02	2.64790e+04	2.12289e-01	3.20000e+02
26634	3.22983e+02	2.66340e+04	2.10721e-01	3.20000e+02
26789	3.22996e+02	2.67890e+04	2.09311e-01	3.20000e+02
26944	3.22986e+02	2.69440e+04	2.08028e-01	3.20000e+02
27099	3.22973e+02	2.70990e+04	2.06904e-01	3.20000e+02
27254	3.22991e+02	2.72540e+04	2.05401e-01	3.20000e+02
27409	3.23001e+02	2.74090e+04	2.04038e-01	3.20000e+02
27564	3.22986e+02	2.75640e+04	2.02690e-01	3.20000e+02
27719	3.22979e+02	2.77190e+04	2.01554e-01	3.20000e+02
27874	3.22974e+02	2.78740e+04	2.00302e-01	3.20000e+02
28029	3.22990e+02	2.80290e+04	1.98806e-01	3.20000e+02
28184	3.22979e+02	2.81840e+04	1.97800e-01	3.20000e+02
28339	3.22982e+02	2.83390e+04	1.96715e-01	3.20000e+02
28494	3.22990e+02	2.84940e+04	1.95412e-01	3.20000e+02
28649	3.22987e+02	2.86490e+04	1.94351e-01	3.20000e+02
28804	3.22988e+02	2.88040e+04	1.92966e-01	3.20000e+02
28959	3.22993e+02	2.89590e+04	1.91747e-01	3.20000e+02
29114	3.22996e+02	2.91140e+04	1.90628e-01	3.20000e+02
29269	3.22978e+02	2.92690e+04	1.89663e-01	3.20000e+02
29424	3.22992e+02	2.94240e+04	1.88690e-01	3.20000e+02
29579	3.22997e+02	2.95790e+04	1.87383e-01	3.20000e+02
29731	3.22981e+02	2.97310e+04	1.86071e-01	3.20000e+02