Folder: Pyrolysis_BESKID/Experiments/TUBS/tga_nonisotherm (part 51)

File: tga_dynamic_n2_dyn120_powder_3mg_r3.txt
index	ts	t	weight	tr
[#]	[°C]	[s]	[mg]	[°C]
623	1.19732e+02	6.23000e+02	2.95424e+00	1.36000e+02
625	1.24667e+02	6.25000e+02	2.95423e+00	1.40000e+02
627	1.29038e+02	6.27000e+02	2.95418e+00	1.44000e+02
629	1.33401e+02	6.29000e+02	2.95414e+00	1.48000e+02
631	1.37948e+02	6.31000e+02	2.95401e+00	1.52000e+02
633	1.42499e+02	6.33000e+02	2.95391e+00	1.56000e+02
635	1.47059e+02	6.35000e+02	2.95348e+00	1.60000e+02
637	1.51593e+02	6.37000e+02	2.95284e+00	1.64000e+02
639	1.56124e+02	6.39000e+02	2.95190e+00	1.68000e+02
641	1.60600e+02	6.41000e+02	2.95058e+00	1.72000e+02
643	1.65072e+02	6.43000e+02	2.94910e+00	1.76000e+02
645	1.69502e+02	6.45000e+02	2.94725e+00	1.80000e+02
647	1.73937e+02	6.47000e+02	2.94528e+00	1.84000e+02
649	1.78309e+02	6.49000e+02	2.94287e+00	1.88000e+02
651	1.82691e+02	6.51000e+02	2.94021e+00	1.92000e+02
653	1.87036e+02	6.53000e+02	2.93671e+00	1.96000e+02
655	1.91368e+02	6.55000e+02	2.93274e+00	2.00000e+02
657	1.95696e+02	6.57000e+02	2.92736e+00	2.04000e+02
659	1.99981e+02	6.59000e+02	2.92146e+00	2.08000e+02
661	2.04268e+02	6.61000e+02	2.91388e+00	2.12000e+02
663	2.08539e+02	6.63000e+02	2.90602e+00	2.16000e+02
665	2.12798e+02	6.65000e+02	2.89693e+00	2.20000e+02
667	2.17062e+02	6.67000e+02	2.88804e+00	2.24000e+02
669	2.21314e+02	6.69000e+02	2.87907e+00	2.28000e+02
671	2.25543e+02	6.71000e+02	2.87070e+00	2.32000e+02
673	2.29753e+02	6.73000e+02	2.86347e+00	2.36000e+02
675	2.33972e+02	6.75000e+02	2.85682e+00	2.40000e+02
677	2.38169e+02	6.77000e+02	2.85175e+00	2.44000e+02
679	2.42351e+02	6.79000e+02	2.84688e+00	2.48000e+02
681	2.46530e+02	6.81000e+02	2.84317e+00	2.52000e+02
683	2.50695e+02	6.83000e+02	2.83943e+00	2.56000e+02
685	2.54851e+02	6.85000e+02	2.83620e+00	2.60000e+02
687	2.58974e+02	6.87000e+02	2.83287e+00	2.64000e+02
689	2.63086e+02	6.89000e+02	2.82966e+00	2.68000e+02
691	2.67165e+02	6.91000e+02	2.82646e+00	2.72000e+02
693	2.71210e+02	6.93000e+02	2.82331e+00	2.76000e+02
695	2.75292e+02	6.95000e+02	2.82012e+00	2.80000e+02
697	2.79353e+02	6.97000e+02	2.81688e+00	2.84000e+02
699	2.83429e+02	6.99000e+02	2.81356e+00	2.88000e+02
701	2.87527e+02	7.01000e+02	2.80996e+00	2.92000e+02
703	2.91609e+02	7.03000e+02	2.80609e+00	2.96000e+02
705	2.95712e+02	7.05000e+02	2.80148e+00	3.00000e+02
707	2.99839e+02	7.07000e+02	2.79643e+00	3.04000e+02
709	3.03969e+02	7.09000e+02	2.79002e+00	3.08000e+02
711	3.08112e+02	7.11000e+02	2.78298e+00	3.12000e+02
713	3.12241e+02	7.13000e+02	2.77394e+00	3.16000e+02
715	3.16328e+02	7.15000e+02	2.76422e+00	3.20000e+02
717	3.20399e+02	7.17000e+02	2.75220e+00	3.24000e+02
719	3.24594e+02	7.19000e+02	2.73967e+00	3.28000e+02
721	3.28724e+02	7.21000e+02	2.72496e+00	3.32000e+02
723	3.32856e+02	7.23000e+02	2.70982e+00	3.36000e+02
725	3.36982e+02	7.25000e+02	2.69245e+00	3.40000e+02
727	3.41081e+02	7.27000e+02	2.67419e+00	3.44000e+02
729	3.45162e+02	7.29000e+02	2.65287e+00	3.48000e+02
731	3.49198e+02	7.31000e+02	2.63055e+00	3.52000e+02
733	3.53292e+02	7.33000e+02	2.60197e+00	3.56000e+02
735	3.57343e+02	7.35000e+02	2.56907e+00	3.60000e+02
737	3.61403e+02	7.37000e+02	2.52971e+00	3.64000e+02
739	3.65366e+02	7.39000e+02	2.48323e+00	3.68000e+02
741	3.69333e+02	7.41000e+02	2.42545e+00	3.72000e+02
743	3.73319e+02	7.43000e+02	2.36035e+00	3.76000e+02
745	3.77266e+02	7.45000e+02	2.28435e+00	3.80000e+02
747	3.81249e+02	7.47000e+02	2.19850e+00	3.84000e+02
749	3.85178e+02	7.49000e+02	2.10186e+00	3.88000e+02
751	3.89073e+02	7.51000e+02	1.99864e+00	3.92000e+02
753	3.93096e+02	7.53000e+02	1.88555e+00	3.96000e+02
755	3.97133e+02	7.55000e+02	1.76546e+00	4.00000e+02
757	4.00942e+02	7.57000e+02	1.63956e+00	4.04000e+02
759	4.04812e+02	7.59000e+02	1.50905e+00	4.08000e+02
761	4.08790e+02	7.61000e+02	1.37240e+00	4.12000e+02
763	4.12774e+02	7.63000e+02	1.23542e+00	4.16000e+02
765	4.16810e+02	7.65000e+02	1.09581e+00	4.20000e+02
767	4.20541e+02	7.67000e+02	9.57668e-01	4.24000e+02
769	4.24467e+02	7.69000e+02	8.20369e-01	4.28000e+02
771	4.28133e+02	7.71000e+02	6.86410e-01	4.32000e+02
773	4.31987e+02	7.73000e+02	5.62159e-01	4.36000e+02
775	4.35691e+02	7.75000e+02	4.48444e-01	4.40000e+02
777	4.39642e+02	7.77000e+02	3.51971e-01	4.44000e+02
779	4.43690e+02	7.79000e+02	2.68756e-01	4.48000e+02
781	4.47609e+02	7.81000e+02	2.03674e-01	4.52000e+02
783	4.51550e+02	7.83000e+02	1.50809e-01	4.56000e+02
785	4.55590e+02	7.85000e+02	1.14691e-01	4.60000e+02
787	4.59568e+02	7.87000e+02	8.60608e-02	4.64000e+02
789	4.63537e+02	7.89000e+02	6.80827e-02	4.68000e+02
791	4.67442e+02	7.91000e+02	5.50815e-02	4.72000e+02
793	4.71428e+02	7.93000e+02	4.76822e-02	4.76000e+02
795	4.75522e+02	7.95000e+02	4.20063e-02	4.80000e+02
797	4.79781e+02	7.97000e+02	3.90537e-02	4.84000e+02
799	4.84085e+02	7.99000e+02	3.62886e-02	4.88000e+02
801	4.88091e+02	8.01000e+02	3.53171e-02	4.92000e+02
803	4.92544e+02	8.03000e+02	3.42461e-02	4.96000e+02
805	4.96510e+02	8.05000e+02	3.39528e-02	5.00000e+02
807	5.00396e+02	8.07000e+02	3.35722e-02	5.04000e+02
809	5.04236e+02	8.09000e+02	3.34606e-02	5.08000e+02
811	5.09059e+02	8.11000e+02	3.33006e-02	5.12000e+02
813	5.12958e+02	8.13000e+02	3.32056e-02	5.16000e+02
815	5.16945e+02	8.15000e+02	3.31065e-02	5.20000e+02
817	5.19663e+02	8.17000e+02	3.30349e-02	5.24000e+02
819	5.23646e+02	8.19000e+02	3.29788e-02	5.28000e+02
821	5.27556e+02	8.21000e+02	3.29550e-02	5.32000e+02
823	5.31444e+02	8.23000e+02	3.29227e-02	5.36000e+02
825	5.35077e+02	8.25000e+02	3.29034e-02	5.40000e+02
827	5.38829e+02	8.27000e+02	3.28880e-02	5.44000e+02
829	5.42729e+02	8.29000e+02	3.28725e-02	5.48000e+02
831	5.46520e+02	8.31000e+02	3.28519e-02	5.52000e+02
833	5.50305e+02	8.33000e+02	3.28455e-02	5.56000e+02
835	5.54259e+02	8.35000e+02	3.28648e-02	5.60000e+02
837	5.57997e+02	8.37000e+02	3.28968e-02	5.64000e+02
839	5.61812e+02	8.39000e+02	3.28944e-02	5.68000e+02
841	5.65705e+02	8.41000e+02	3.28648e-02	5.72000e+02
843	5.69638e+02	8.43000e+02	3.28370e-02	5.76000e+02
845	5.73430e+02	8.45000e+02	3.27852e-02	5.80000e+02
847	5.77213e+02	8.47000e+02	3.27319e-02	5.84000e+02
849	5.81075e+02	8.49000e+02	3.26804e-02	5.88000e+02
851	5.84788e+02	8.51000e+02	3.26484e-02	5.92000e+02
853	5.88639e+02	8.53000e+02	3.26376e-02	5.96000e+02
855	5.92524e+02	8.55000e+02	3.26309e-02	6.00000e+02
857	5.96409e+02	8.57000e+02	3.26556e-02	6.04000e+02
859	6.00334e+02	8.59000e+02	3.26811e-02	6.08000e+02
861	6.04211e+02	8.61000e+02	3.26988e-02	6.12000e+02
863	6.08131e+02	8.63000e+02	3.26958e-02	6.16000e+02
865	6.12034e+02	8.65000e+02	3.26768e-02	6.20000e+02
867	6.16015e+02	8.67000e+02	3.26863e-02	6.24000e+02
869	6.20227e+02	8.69000e+02	3.26941e-02	6.28000e+02
871	6.24173e+02	8.71000e+02	3.26621e-02	6.32000e+02
873	6.28116e+02	8.73000e+02	3.25849e-02	6.36000e+02
875	6.31997e+02	8.75000e+02	3.25217e-02	6.40000e+02
877	6.35879e+02	8.77000e+02	3.24484e-02	6.44000e+02
879	6.39810e+02	8.79000e+02	3.23889e-02	6.48000e+02
881	6.41329e+02	8.81000e+02	3.23899e-02	6.52000e+02
883	6.43870e+02	8.83000e+02	3.24269e-02	6.56000e+02
885	6.46818e+02	8.85000e+02	3.25322e-02	6.60000e+02
887	6.49715e+02	8.87000e+02	3.25526e-02	6.64000e+02
889	6.52410e+02	8.89000e+02	3.25077e-02	6.68000e+02
891	6.54740e+02	8.91000e+02	3.24092e-02	6.72000e+02
893	6.56973e+02	8.93000e+02	3.22333e-02	6.76000e+02
895	6.59131e+02	8.95000e+02	3.21016e-02	6.80000e+02
897	6.61188e+02	8.97000e+02	3.20042e-02	6.84000e+02
899	6.63423e+02	8.99000e+02	3.19459e-02	6.88000e+02
901	6.65674e+02	9.01000e+02	3.19512e-02	6.92000e+02
903	6.66952e+02	9.03000e+02	3.19608e-02	6.96000e+02
905	6.68407e+02	9.05000e+02	3.19967e-02	7.00000e+02

File: tga_dynamic_n2high50_dyn30_piece_3mg_r1.txt
Index	Ts	t	Weight	Tr
[#]	[°C]	[s]	[mg]	[°C]
682	1.30382e+02	6.82000e+02	3.0115	131.0
692	1.35398e+02	6.92000e+02	3.01173	136.0
702	1.40408e+02	7.02000e+02	3.01108	141.0
712	1.45451e+02	7.12000e+02	3.01059	146.0
722	1.50468e+02	7.22000e+02	3.01042	151.0
732	1.55505e+02	7.32000e+02	3.01023	156.0
742	1.60556e+02	7.42000e+02	3.0095	161.0
752	1.65596e+02	7.52000e+02	3.00859	166.0
762	1.70652e+02	7.62000e+02	3.00814	171.0
772	1.75725e+02	7.72000e+02	3.00758	176.0
782	1.80784e+02	7.82000e+02	3.00674	181.0
792	1.85859e+02	7.92000e+02	3.00552	186.0
802	1.90919e+02	8.02000e+02	3.00396	191.0
812	1.95988e+02	8.12000e+02	3.00172	196.0
822	2.01083e+02	8.22000e+02	2.99874	201.0
832	2.06169e+02	8.32000e+02	2.99529	206.0
842	2.11262e+02	8.42000e+02	2.9915	211.0
852	2.16347e+02	8.52000e+02	2.98751	216.0
862	2.21459e+02	8.62000e+02	2.98335	221.0
872	2.26680e+02	8.72000e+02	2.97928	226.0
882	2.31956e+02	8.82000e+02	2.97513	231.0
892	2.37049e+02	8.92000e+02	2.97097	236.0
902	2.42104e+02	9.02000e+02	2.96634	241.0
912	2.47304e+02	9.12000e+02	2.96176	246.0
922	2.52438e+02	9.22000e+02	2.95695	251.0
932	2.57535e+02	9.32000e+02	2.95196	256.0
942	2.62622e+02	9.42000e+02	2.94686	261.0
952	2.67747e+02	9.52000e+02	2.94194	266.0
962	2.72766e+02	9.62000e+02	2.93637	271.0
972	2.77723e+02	9.72000e+02	2.93086	276.0
982	2.82681e+02	9.82000e+02	2.92504	281.0
992	2.87688e+02	9.92000e+02	2.91882	286.0
1002	2.92636e+02	1.00200e+03	2.91211	291.0
1012	2.97454e+02	1.01200e+03	2.90422	296.0
1022	3.02351e+02	1.02200e+03	2.89458	301.0
1032	3.07207e+02	1.03200e+03	2.88315	306.0
1042	3.12097e+02	1.04200e+03	2.87008	311.0
1052	3.17110e+02	1.05200e+03	2.85505	316.0
1062	3.22108e+02	1.06200e+03	2.83736	321.0
1072	3.27122e+02	1.07200e+03	2.81663	326.0
1082	3.32288e+02	1.08200e+03	2.79272	331.0
1092	3.37390e+02	1.09200e+03	2.76641	336.0
1102	3.42476e+02	1.10200e+03	2.73698	341.0
1112	3.47626e+02	1.11200e+03	2.69836	346.0
1122	3.52731e+02	1.12200e+03	2.64512	351.0
1132	3.57871e+02	1.13200e+03	2.56907	356.0
1142	3.62806e+02	1.14200e+03	2.46224	361.0
1152	3.67707e+02	1.15200e+03	2.31478	366.0
1162	3.72622e+02	1.16200e+03	2.12789	371.0
1172	3.77578e+02	1.17200e+03	1.90588	376.0
1182	3.82575e+02	1.18200e+03	1.66041	381.0
1192	3.87547e+02	1.19200e+03	1.40139	386.0
1202	3.92566e+02	1.20200e+03	1.13659	391.0
1212	3.97581e+02	1.21200e+03	0.867635	396.0
1222	4.02669e+02	1.22200e+03	0.596894	401.0
1232	4.07835e+02	1.23200e+03	0.368376	406.0
1242	4.12925e+02	1.24200e+03	0.203898	411.0
1252	4.18013e+02	1.25200e+03	0.0966404	416.0
1262	4.23112e+02	1.26200e+03	0.0304939	421.0
1272	4.28200e+02	1.27200e+03	-0.00657653	426.0
1282	4.33227e+02	1.28200e+03	-0.0269684	431.0
1292	4.38210e+02	1.29200e+03	-0.0372582	436.0
1302	4.43175e+02	1.30200e+03	-0.0432403	441.0
1312	4.48154e+02	1.31200e+03	-0.0469157	446.0
1322	4.53043e+02	1.32200e+03	-0.0491757	451.0
1332	4.57913e+02	1.33200e+03	-0.0503063	456.0
1342	4.62791e+02	1.34200e+03	-0.0511265	461.0
1352	4.67688e+02	1.35200e+03	-0.0513511	466.0
1362	4.72612e+02	1.36200e+03	-0.0518639	471.0
1372	4.77526e+02	1.37200e+03	-0.0519573	476.0
1382	4.82494e+02	1.38200e+03	-0.0523154	481.0
1392	4.87374e+02	1.39200e+03	-0.0525903	486.0
1402	4.92224e+02	1.40200e+03	-0.0530642	491.0
1412	4.97084e+02	1.41200e+03	-0.0532668	496.0
1422	5.01970e+02	1.42200e+03	-0.0534775	501.0
1432	5.06877e+02	1.43200e+03	-0.0536887	506.0
1442	5.11784e+02	1.44200e+03	-0.0541206	511.0
1452	5.16680e+02	1.45200e+03	-0.0541884	516.0
1462	5.21596e+02	1.46200e+03	-0.0544873	521.0
1472	5.26508e+02	1.47200e+03	-0.0540732	526.0
1482	5.31405e+02	1.48200e+03	-0.0550845	531.0
1492	5.36344e+02	1.49200e+03	-0.0555032	536.0
1502	5.41335e+02	1.50200e+03	-0.055413	541.0
1512	5.46319e+02	1.51200e+03	-0.0554871	546.0
1522	5.51328e+02	1.52200e+03	-0.0558226	551.0
1532	5.56359e+02	1.53200e+03	-0.055934	556.0
1542	5.61273e+02	1.54200e+03	-0.0562222	561.0
1552	5.66227e+02	1.55200e+03	-0.0563468	566.0
1562	5.71151e+02	1.56200e+03	-0.0563887	571.0
1572	5.76303e+02	1.57200e+03	-0.0564369	576.0
1582	5.81612e+02	1.58200e+03	-0.0565567	581.0
1592	5.87507e+02	1.59200e+03	-0.0564516	586.0
1602	5.92459e+02	1.60200e+03	-0.0565702	591.0
1612	5.97398e+02	1.61200e+03	-0.0567129	596.0
1622	6.02280e+02	1.62200e+03	-0.0566275	601.0
1632	6.07191e+02	1.63200e+03	-0.0567096	606.0
1642	6.12119e+02	1.64200e+03	-0.0567984	611.0
1652	6.17042e+02	1.65200e+03	-0.0567871	616.0
1662	6.21964e+02	1.66200e+03	-0.0569188	621.0
1672	6.26895e+02	1.67200e+03	-0.0569127	626.0
1682	6.31830e+02	1.68200e+03	-0.0570168	631.0
1692	6.36803e+02	1.69200e+03	-0.057079	636.0
1702	6.41760e+02	1.70200e+03	-0.0571611	641.0
1712	6.46810e+02	1.71200e+03	-0.0573183	646.0
1722	6.51710e+02	1.72200e+03	-0.0573579	651.0
1732	6.56549e+02	1.73200e+03	-0.0573797	656.0
1742	6.61465e+02	1.74200e+03	-0.0574247	661.0
1752	6.66361e+02	1.75200e+03	-0.0576402	666.0
1762	6.71255e+02	1.76200e+03	-0.057469	671.0
1772	6.76127e+02	1.77200e+03	-0.057414	676.0
1782	6.81071e+02	1.78200e+03	-0.0571966	681.0
1792	6.85945e+02	1.79200e+03	-0.0573209	686.0
1802	6.89411e+02	1.80200e+03	-0.0575187	691.0
1812	6.92188e+02	1.81200e+03	-0.0576312	696.0
1822	6.94180e+02	1.82200e+03	-0.0575203	700.0
1832	6.95680e+02	1.83200e+03	-0.0576019	700.0
1842	6.96803e+02	1.84200e+03	-0.0577634	700.0
1852	6.97672e+02	1.85200e+03	-0.0576481	700.0
1862	6.98318e+02	1.86200e+03	-0.0577752	700.0
1872	6.98823e+02	1.87200e+03	-0.0576294	700.0
1882	6.99225e+02	1.88200e+03	-0.0577431	700.0
1892	6.99517e+02	1.89200e+03	-0.0578645	700.0
1902	6.99734e+02	1.90200e+03	-0.0577892	700.0
1912	6.99917e+02	1.91200e+03	-0.0576535	700.0
1922	7.00038e+02	1.92200e+03	-0.0582282	700.0
1932	7.00157e+02	1.93200e+03	-0.0575859	700.0
1942	7.00251e+02	1.94200e+03	-0.0584083	700.0
1952	7.00335e+02	1.95200e+03	-0.0579399	700.0
1962	7.00396e+02	1.96200e+03	-0.0581414	700.0
1972	7.00454e+02	1.97200e+03	-0.0578495	700.0
1982	7.00495e+02	1.98200e+03	-0.0576087	700.0
1992	7.00516e+02	1.99200e+03	-0.0578931	700.0
2002	7.00553e+02	2.00200e+03	-0.0581453	700.0
2012	7.00589e+02	2.01200e+03	-0.0580965	700.0
2022	7.00577e+02	2.02200e+03	-0.0581459	700.0
2032	7.00601e+02	2.03200e+03	-0.0582804	700.0
2042	7.00608e+02	2.04200e+03	-0.0582848	700.0
2052	7.00613e+02	2.05200e+03	-0.0582114	700.0
2062	7.00618e+02	2.06200e+03	-0.0581872	700.0
2072	7.00622e+02	2.07200e+03	-0.0582036	700.0
2082	7.00630e+02	2.08200e+03	-0.0582519	700.0
2092	7.00630e+02	2.09200e+03	-0.0582029	700.0
2102	7.00629e+02	2.10200e+03	-0.0582282	700.0
2112	7.00634e+02	2.11200e+03	-0.05832	700.0
2122	7.00636e+02	2.12200e+03	-0.0580563	700.0
2132	7.00634e+02	2.13200e+03	-0.058158	700.0
2142	7.00638e+02	2.14200e+03	-0.0584123	700.0
2152	7.00639e+02	2.15200e+03	-0.0584947	700.0
2162	7.00626e+02	2.16200e+03	-0.058478	700.0
2172	7.00626e+02	2.17200e+03	-0.0584486	700.0
2182	7.00635e+02	2.18200e+03	-0.058362	700.0
2192	7.00632e+02	2.19200e+03	-0.058399	700.0
2202	7.00628e+02	2.20200e+03	-0.0584873	700.0
2212	7.00610e+02	2.21200e+03	-0.0584796	700.0
2222	7.00611e+02	2.22200e+03	-0.0582608	700.0
2232	7.00595e+02	2.23200e+03	-0.058568	700.0
2242	7.00595e+02	2.24200e+03	-0.0586437	700.0
2252	7.00587e+02	2.25200e+03	-0.0586498	700.0
2262	7.00588e+02	2.26200e+03	-0.0586307	700.0
2272	7.00573e+02	2.27200e+03	-0.0587545	700.0
2282	7.00573e+02	2.28200e+03	-0.0586938	700.0
2292	7.00579e+02	2.29200e+03	-0.0586517	700.0
2302	7.00564e+02	2.30200e+03	-0.0589915	700.0
2312	7.00565e+02	2.31200e+03	-0.0589761	700.0
2322	7.00560e+02	2.32200e+03	-0.0588705	700.0
2332	7.00555e+02	2.33200e+03	-0.0587114	700.0
2342	7.00548e+02	2.34200e+03	-0.0588959	700.0
2352	7.00540e+02	2.35200e+03	-0.0589938	700.0
2362	7.00541e+02	2.36200e+03	-0.0590012	700.0
2372	7.00547e+02	2.37200e+03	-0.0592111	700.0
2382	7.00538e+02	2.38200e+03	-0.0590964	700.0
2392	7.00538e+02	2.39200e+03	-0.0590829	700.0
2402	7.00517e+02	2.40200e+03	-0.0591193	700.0
2412	7.00528e+02	2.41200e+03	-0.0590875	700.0
2422	7.00519e+02	2.42200e+03	-0.0590721	700.0
2432	7.00520e+02	2.43200e+03	-0.0591475	700.0
2442	7.00525e+02	2.44200e+03	-0.0591367	700.0
2452	7.00519e+02	2.45200e+03	-0.0591404	700.0
2462	7.00510e+02	2.46200e+03	-0.0591076	700.0
2472	7.00507e+02	2.47200e+03	-0.0591095	700.0
2482	7.00511e+02	2.48200e+03	-0.0592037	700.0
2492	7.00499e+02	2.49200e+03	-0.0592273	700.0
2502	7.00496e+02	2.50200e+03	-0.059168	700.0
2512	7.00497e+02	2.51200e+03	-0.0592344	700.0
2522	7.00504e+02	2.52200e+03	-0.0592071	700.0
2532	7.00498e+02	2.53200e+03	-0.0591728	700.0
2542	7.00486e+02	2.54200e+03	-0.0593063	700.0
2552	7.00475e+02	2.55200e+03	-0.0592658	700.0
2562	7.00484e+02	2.56200e+03	-0.059154	700.0
2572	7.00470e+02	2.57200e+03	-0.059305	700.0
2582	7.00466e+02	2.58200e+03	-0.0593923	700.0
2592	7.00459e+02	2.59200e+03	-0.0592522	700.0
2602	7.00465e+02	2.60200e+03	-0.0592509	700.0
2612	7.00465e+02	2.61200e+03	-0.0593357	700.0
2622	7.00454e+02	2.62200e+03	-0.0593002	700.0
2632	7.00458e+02	2.63200e+03	-0.0594261	700.0
2642	7.00456e+02	2.64200e+03	-0.0594096	700.0
2652	7.00450e+02	2.65200e+03	-0.0593402	700.0
2662	7.00448e+02	2.66200e+03	-0.0593884	700.0
2672	7.00451e+02	2.67200e+03	-0.0592972	700.0
2682	7.00448e+02	2.68200e+03	-0.0593729	700.0
2692	7.00449e+02	2.69200e+03	-0.059446	700.0
2702	7.00439e+02	2.70200e+03	-0.0594067	700.0
2712	7.00434e+02	2.71200e+03	-0.0593751	700.0
2720	7.00434e+02	2.72000e+03	-0.05944	700.0