Folder: Pyrolysis_BESKID/Experiments/TUBS/tga_nonisotherm (part 47)

File: tga_dynamic_n2_dyn90_piece_3mg_r1.txt
index	ts	t	weight	tr
[#]	[°C]	[s]	[mg]	[°C]
630	1.27325e+02	6.30000e+02	3.04977e+00	1.34996e+02
632	1.30557e+02	6.32000e+02	3.04951e+00	1.37996e+02
634	1.33894e+02	6.34000e+02	3.04914e+00	1.40996e+02
636	1.37144e+02	6.36000e+02	3.04858e+00	1.43996e+02
638	1.40438e+02	6.38000e+02	3.04807e+00	1.46995e+02
640	1.43724e+02	6.40000e+02	3.04763e+00	1.49995e+02
642	1.46996e+02	6.42000e+02	3.04727e+00	1.52995e+02
644	1.50235e+02	6.44000e+02	3.04703e+00	1.55995e+02
646	1.53489e+02	6.46000e+02	3.04685e+00	1.58994e+02
648	1.56720e+02	6.48000e+02	3.04675e+00	1.61994e+02
650	1.59938e+02	6.50000e+02	3.04663e+00	1.64994e+02
652	1.63152e+02	6.52000e+02	3.04651e+00	1.67994e+02
654	1.66344e+02	6.54000e+02	3.04641e+00	1.70993e+02
656	1.69526e+02	6.56000e+02	3.04634e+00	1.73993e+02
658	1.72709e+02	6.58000e+02	3.04627e+00	1.76993e+02
660	1.75884e+02	6.60000e+02	3.04621e+00	1.79993e+02
662	1.79044e+02	6.62000e+02	3.04614e+00	1.82992e+02
664	1.82183e+02	6.64000e+02	3.04604e+00	1.85992e+02
666	1.85335e+02	6.66000e+02	3.04590e+00	1.88992e+02
668	1.88472e+02	6.68000e+02	3.04568e+00	1.91992e+02
670	1.91592e+02	6.70000e+02	3.04545e+00	1.94991e+02
672	1.94726e+02	6.72000e+02	3.04519e+00	1.97991e+02
674	1.97837e+02	6.74000e+02	3.04490e+00	2.00991e+02
676	2.00943e+02	6.76000e+02	3.04455e+00	2.03991e+02
678	2.04047e+02	6.78000e+02	3.04414e+00	2.06990e+02
680	2.07140e+02	6.80000e+02	3.04363e+00	2.09990e+02
682	2.10212e+02	6.82000e+02	3.04303e+00	2.12990e+02
684	2.13283e+02	6.84000e+02	3.04226e+00	2.15990e+02
686	2.16356e+02	6.86000e+02	3.04137e+00	2.18989e+02
688	2.19401e+02	6.88000e+02	3.04034e+00	2.21989e+02
690	2.22462e+02	6.90000e+02	3.03924e+00	2.24989e+02
692	2.25521e+02	6.92000e+02	3.03805e+00	2.27989e+02
694	2.28555e+02	6.94000e+02	3.03682e+00	2.30988e+02
696	2.31631e+02	6.96000e+02	3.03551e+00	2.33988e+02
698	2.34689e+02	6.98000e+02	3.03417e+00	2.36988e+02
700	2.37762e+02	7.00000e+02	3.03277e+00	2.39988e+02
702	2.40816e+02	7.02000e+02	3.03135e+00	2.42987e+02
704	2.43888e+02	7.04000e+02	3.02989e+00	2.45987e+02
706	2.46948e+02	7.06000e+02	3.02842e+00	2.48987e+02
708	2.50020e+02	7.08000e+02	3.02690e+00	2.51987e+02
710	2.53089e+02	7.10000e+02	3.02533e+00	2.54986e+02
712	2.56156e+02	7.12000e+02	3.02370e+00	2.57986e+02
714	2.59218e+02	7.14000e+02	3.02204e+00	2.60986e+02
716	2.62267e+02	7.16000e+02	3.02031e+00	2.63986e+02
718	2.65299e+02	7.18000e+02	3.01853e+00	2.66985e+02
720	2.68360e+02	7.20000e+02	3.01665e+00	2.69985e+02
722	2.71419e+02	7.22000e+02	3.01473e+00	2.72985e+02
724	2.74464e+02	7.24000e+02	3.01274e+00	2.75985e+02
726	2.77502e+02	7.26000e+02	3.01069e+00	2.78984e+02
728	2.80556e+02	7.28000e+02	3.00854e+00	2.81984e+02
730	2.83611e+02	7.30000e+02	3.00633e+00	2.84984e+02
732	2.86648e+02	7.32000e+02	3.00401e+00	2.87984e+02
734	2.89668e+02	7.34000e+02	3.00159e+00	2.90984e+02
736	2.92703e+02	7.36000e+02	2.99902e+00	2.93983e+02
738	2.95743e+02	7.38000e+02	2.99631e+00	2.96983e+02
740	2.98813e+02	7.40000e+02	2.99335e+00	2.99983e+02
742	3.01852e+02	7.42000e+02	2.99021e+00	3.02983e+02
744	3.04863e+02	7.44000e+02	2.98678e+00	3.05982e+02
746	3.07898e+02	7.46000e+02	2.98321e+00	3.08982e+02
748	3.10942e+02	7.48000e+02	2.97934e+00	3.11982e+02
750	3.14033e+02	7.50000e+02	2.97524e+00	3.14982e+02
752	3.17094e+02	7.52000e+02	2.97071e+00	3.17981e+02
754	3.20133e+02	7.54000e+02	2.96589e+00	3.20981e+02
756	3.23191e+02	7.56000e+02	2.96052e+00	3.23981e+02
758	3.26246e+02	7.58000e+02	2.95481e+00	3.26981e+02
760	3.29316e+02	7.60000e+02	2.94852e+00	3.29980e+02
762	3.32329e+02	7.62000e+02	2.94189e+00	3.32980e+02
764	3.35319e+02	7.64000e+02	2.93461e+00	3.35980e+02
766	3.38299e+02	7.66000e+02	2.92680e+00	3.38980e+02
768	3.41218e+02	7.68000e+02	2.91808e+00	3.41979e+02
770	3.44115e+02	7.70000e+02	2.90864e+00	3.44979e+02
772	3.47069e+02	7.72000e+02	2.89776e+00	3.47979e+02
774	3.50040e+02	7.74000e+02	2.88543e+00	3.50979e+02
776	3.53061e+02	7.76000e+02	2.87053e+00	3.53978e+02
778	3.56073e+02	7.78000e+02	2.85371e+00	3.56978e+02
780	3.59081e+02	7.80000e+02	2.83369e+00	3.59978e+02
782	3.62097e+02	7.82000e+02	2.81176e+00	3.62978e+02
784	3.65084e+02	7.84000e+02	2.78466e+00	3.65977e+02
786	3.68031e+02	7.86000e+02	2.75283e+00	3.68977e+02
788	3.71004e+02	7.88000e+02	2.71523e+00	3.71977e+02
790	3.73953e+02	7.90000e+02	2.67344e+00	3.74977e+02
792	3.76916e+02	7.92000e+02	2.62277e+00	3.77976e+02
794	3.79876e+02	7.94000e+02	2.56426e+00	3.80976e+02
796	3.82799e+02	7.96000e+02	2.49592e+00	3.83976e+02
798	3.85720e+02	7.98000e+02	2.41936e+00	3.86976e+02
800	3.88660e+02	8.00000e+02	2.33337e+00	3.89975e+02
802	3.91592e+02	8.02000e+02	2.23964e+00	3.92975e+02
804	3.94570e+02	8.04000e+02	2.13753e+00	3.95975e+02
806	3.97519e+02	8.06000e+02	2.02839e+00	3.98975e+02
808	4.00513e+02	8.08000e+02	1.91408e+00	4.01974e+02
810	4.03445e+02	8.10000e+02	1.79591e+00	4.04974e+02
812	4.06437e+02	8.12000e+02	1.67275e+00	4.07974e+02
814	4.09323e+02	8.14000e+02	1.54592e+00	4.10974e+02
816	4.12269e+02	8.16000e+02	1.41650e+00	4.13973e+02
818	4.15373e+02	8.18000e+02	1.28555e+00	4.16973e+02
820	4.18347e+02	8.20000e+02	1.15252e+00	4.19973e+02
822	4.21323e+02	8.22000e+02	1.01912e+00	4.22973e+02
824	4.24368e+02	8.24000e+02	8.85553e-01	4.25972e+02
826	4.27426e+02	8.26000e+02	7.53151e-01	4.28972e+02
828	4.30506e+02	8.28000e+02	6.22885e-01	4.31972e+02
830	4.33599e+02	8.30000e+02	4.97097e-01	4.34972e+02
832	4.36704e+02	8.32000e+02	3.82229e-01	4.37971e+02
834	4.39795e+02	8.34000e+02	2.84972e-01	4.40971e+02
836	4.42900e+02	8.36000e+02	2.05315e-01	4.43971e+02
838	4.46016e+02	8.38000e+02	1.43208e-01	4.46971e+02
840	4.49110e+02	8.40000e+02	9.64388e-02	4.49970e+02
842	4.52191e+02	8.42000e+02	6.41009e-02	4.52970e+02
844	4.55219e+02	8.44000e+02	4.07476e-02	4.55970e+02
846	4.58222e+02	8.46000e+02	2.49272e-02	4.58970e+02
848	4.61292e+02	8.48000e+02	1.40148e-02	4.61970e+02
850	4.64356e+02	8.50000e+02	6.79693e-03	4.64969e+02
852	4.67443e+02	8.52000e+02	1.89938e-03	4.67969e+02
854	4.70502e+02	8.54000e+02	-1.86953e-03	4.70969e+02
856	4.73586e+02	8.56000e+02	-4.07718e-03	4.73969e+02
858	4.76718e+02	8.58000e+02	-5.78445e-03	4.76968e+02
860	4.79783e+02	8.60000e+02	-6.74790e-03	4.79968e+02
862	4.82876e+02	8.62000e+02	-7.49645e-03	4.82968e+02
864	4.85904e+02	8.64000e+02	-7.91437e-03	4.85968e+02
866	4.88929e+02	8.66000e+02	-8.24981e-03	4.88967e+02
868	4.91931e+02	8.68000e+02	-8.47506e-03	4.91967e+02
870	4.94898e+02	8.70000e+02	-8.66349e-03	4.94967e+02
872	4.97824e+02	8.72000e+02	-8.77584e-03	4.97967e+02
874	5.00766e+02	8.74000e+02	-8.84212e-03	5.00966e+02
876	5.03694e+02	8.76000e+02	-8.85992e-03	5.03966e+02
878	5.06690e+02	8.78000e+02	-8.88937e-03	5.06966e+02
880	5.09683e+02	8.80000e+02	-8.92417e-03	5.09966e+02
882	5.12528e+02	8.82000e+02	-8.94951e-03	5.12965e+02
884	5.15598e+02	8.84000e+02	-8.97839e-03	5.15965e+02
886	5.18678e+02	8.86000e+02	-9.02785e-03	5.18965e+02
888	5.21645e+02	8.88000e+02	-9.10016e-03	5.21965e+02
890	5.24594e+02	8.90000e+02	-9.17382e-03	5.24964e+02
892	5.27534e+02	8.92000e+02	-9.26341e-03	5.27964e+02
894	5.30490e+02	8.94000e+02	-9.37649e-03	5.30964e+02
896	5.33476e+02	8.96000e+02	-9.51204e-03	5.33964e+02
898	5.36451e+02	8.98000e+02	-9.64074e-03	5.36963e+02
900	5.39387e+02	9.00000e+02	-9.76816e-03	5.39963e+02
902	5.42324e+02	9.02000e+02	-9.90846e-03	5.42963e+02
904	5.45230e+02	9.04000e+02	-1.00548e-02	5.45963e+02
906	5.48144e+02	9.06000e+02	-1.01798e-02	5.48962e+02
908	5.50997e+02	9.08000e+02	-1.02774e-02	5.51962e+02
910	5.53614e+02	9.10000e+02	-1.03779e-02	5.54962e+02
912	5.56432e+02	9.12000e+02	-1.04741e-02	5.57962e+02
914	5.59343e+02	9.14000e+02	-1.05563e-02	5.60961e+02
916	5.62142e+02	9.16000e+02	-1.06211e-02	5.63961e+02
918	5.64501e+02	9.18000e+02	-1.06832e-02	5.66961e+02
920	5.66981e+02	9.20000e+02	-1.07364e-02	5.69961e+02
922	5.69747e+02	9.22000e+02	-1.07839e-02	5.72960e+02
924	5.72599e+02	9.24000e+02	-1.08364e-02	5.75960e+02
926	5.75439e+02	9.26000e+02	-1.09200e-02	5.78960e+02
928	5.78327e+02	9.28000e+02	-1.10416e-02	5.81960e+02
930	5.81198e+02	9.30000e+02	-1.11494e-02	5.84959e+02
932	5.84073e+02	9.32000e+02	-1.12385e-02	5.87959e+02
934	5.86963e+02	9.34000e+02	-1.13295e-02	5.90959e+02
936	5.89848e+02	9.36000e+02	-1.14328e-02	5.93959e+02
938	5.92725e+02	9.38000e+02	-1.15472e-02	5.96958e+02
940	5.95579e+02	9.40000e+02	-1.16713e-02	5.99958e+02
942	5.98464e+02	9.42000e+02	-1.17871e-02	6.02958e+02
944	6.01320e+02	9.44000e+02	-1.18962e-02	6.05958e+02
946	6.04176e+02	9.46000e+02	-1.20114e-02	6.08957e+02
948	6.07071e+02	9.48000e+02	-1.21203e-02	6.11957e+02
950	6.09977e+02	9.50000e+02	-1.22127e-02	6.14957e+02
952	6.12835e+02	9.52000e+02	-1.22796e-02	6.17957e+02
954	6.15705e+02	9.54000e+02	-1.23308e-02	6.20956e+02
956	6.18585e+02	9.56000e+02	-1.23564e-02	6.23956e+02
958	6.21480e+02	9.58000e+02	-1.23732e-02	6.26956e+02
960	6.24538e+02	9.60000e+02	-1.23869e-02	6.29956e+02
962	6.27539e+02	9.62000e+02	-1.24095e-02	6.32956e+02
964	6.30447e+02	9.64000e+02	-1.24460e-02	6.35955e+02
966	6.33380e+02	9.66000e+02	-1.24846e-02	6.38955e+02
968	6.36332e+02	9.68000e+02	-1.25348e-02	6.41955e+02
970	6.39312e+02	9.70000e+02	-1.25936e-02	6.44954e+02
972	6.42309e+02	9.72000e+02	-1.26560e-02	6.47954e+02
974	6.45261e+02	9.74000e+02	-1.27208e-02	6.50954e+02
976	6.48243e+02	9.76000e+02	-1.27991e-02	6.53954e+02
978	6.51315e+02	9.78000e+02	-1.28931e-02	6.56953e+02
980	6.54557e+02	9.80000e+02	-1.29784e-02	6.59953e+02
982	6.58284e+02	9.82000e+02	-1.29962e-02	6.62953e+02
984	6.59454e+02	9.84000e+02	-1.29112e-02	6.65953e+02
986	6.61290e+02	9.86000e+02	-1.28145e-02	6.68953e+02
988	6.63216e+02	9.88000e+02	-1.27318e-02	6.71952e+02
990	6.65059e+02	9.90000e+02	-1.27129e-02	6.74952e+02
992	6.66822e+02	9.92000e+02	-1.28005e-02	6.77952e+02
994	6.68475e+02	9.94000e+02	-1.29220e-02	6.80952e+02
996	6.70005e+02	9.96000e+02	-1.30771e-02	6.83951e+02
998	6.71462e+02	9.98000e+02	-1.31920e-02	6.86951e+02
1000	6.72809e+02	1.00000e+03	-1.32511e-02	6.89951e+02
1002	6.74099e+02	1.00200e+03	-1.33242e-02	6.92951e+02
1004	6.75298e+02	1.00400e+03	-1.33712e-02	6.95950e+02
1006	6.76463e+02	1.00600e+03	-1.34028e-02	6.98950e+02
1007	6.77019e+02	1.00700e+03	-1.34100e-02	7.00000e+02

File: tga_dynamic_n2_dyn90_piece_3mg_r2.txt
index	ts	t	weight	tr
[#]	[°C]	[s]	[mg]	[°C]
630	1.28902e+02	6.30000e+02	3.06887e+00	1.34996e+02
632	1.32166e+02	6.32000e+02	3.06854e+00	1.37996e+02
634	1.35408e+02	6.34000e+02	3.06812e+00	1.40996e+02
636	1.38642e+02	6.36000e+02	3.06756e+00	1.43996e+02
638	1.41880e+02	6.38000e+02	3.06704e+00	1.46995e+02
640	1.45109e+02	6.40000e+02	3.06659e+00	1.49995e+02
642	1.48305e+02	6.42000e+02	3.06623e+00	1.52995e+02
644	1.51512e+02	6.44000e+02	3.06596e+00	1.55995e+02
646	1.54687e+02	6.46000e+02	3.06572e+00	1.58994e+02
648	1.57859e+02	6.48000e+02	3.06553e+00	1.61994e+02
650	1.61019e+02	6.50000e+02	3.06536e+00	1.64994e+02
652	1.64161e+02	6.52000e+02	3.06523e+00	1.67994e+02
654	1.67298e+02	6.54000e+02	3.06509e+00	1.70993e+02
656	1.70429e+02	6.56000e+02	3.06495e+00	1.73993e+02
658	1.73552e+02	6.58000e+02	3.06482e+00	1.76993e+02
660	1.76659e+02	6.60000e+02	3.06469e+00	1.79993e+02
662	1.79768e+02	6.62000e+02	3.06454e+00	1.82992e+02
664	1.82877e+02	6.64000e+02	3.06436e+00	1.85992e+02
666	1.85964e+02	6.66000e+02	3.06416e+00	1.88992e+02
668	1.89056e+02	6.68000e+02	3.06392e+00	1.91992e+02
670	1.92141e+02	6.70000e+02	3.06364e+00	1.94991e+02
672	1.95232e+02	6.72000e+02	3.06331e+00	1.97991e+02
674	1.98303e+02	6.74000e+02	3.06293e+00	2.00991e+02
676	2.01369e+02	6.76000e+02	3.06246e+00	2.03991e+02
678	2.04430e+02	6.78000e+02	3.06190e+00	2.06990e+02
680	2.07498e+02	6.80000e+02	3.06120e+00	2.09990e+02
682	2.10563e+02	6.82000e+02	3.06045e+00	2.12990e+02
684	2.13621e+02	6.84000e+02	3.05957e+00	2.15990e+02
686	2.16684e+02	6.86000e+02	3.05861e+00	2.18989e+02
688	2.19739e+02	6.88000e+02	3.05750e+00	2.21989e+02
690	2.22806e+02	6.90000e+02	3.05633e+00	2.24989e+02
692	2.25862e+02	6.92000e+02	3.05506e+00	2.27989e+02
694	2.28928e+02	6.94000e+02	3.05374e+00	2.30988e+02
696	2.31974e+02	6.96000e+02	3.05233e+00	2.33988e+02
698	2.35030e+02	6.98000e+02	3.05089e+00	2.36988e+02
700	2.38061e+02	7.00000e+02	3.04941e+00	2.39988e+02
702	2.41091e+02	7.02000e+02	3.04790e+00	2.42987e+02
704	2.44137e+02	7.04000e+02	3.04636e+00	2.45987e+02
706	2.47187e+02	7.06000e+02	3.04478e+00	2.48987e+02
708	2.50237e+02	7.08000e+02	3.04314e+00	2.51987e+02
710	2.53272e+02	7.10000e+02	3.04148e+00	2.54986e+02
712	2.56324e+02	7.12000e+02	3.03977e+00	2.57986e+02
714	2.59344e+02	7.14000e+02	3.03803e+00	2.60986e+02
716	2.62390e+02	7.16000e+02	3.03625e+00	2.63986e+02
718	2.65424e+02	7.18000e+02	3.03443e+00	2.66985e+02
720	2.68459e+02	7.20000e+02	3.03251e+00	2.69985e+02
722	2.71457e+02	7.22000e+02	3.03051e+00	2.72985e+02
724	2.74491e+02	7.24000e+02	3.02841e+00	2.75985e+02
726	2.77524e+02	7.26000e+02	3.02625e+00	2.78984e+02
728	2.80543e+02	7.28000e+02	3.02400e+00	2.81984e+02
730	2.83576e+02	7.30000e+02	3.02167e+00	2.84984e+02
732	2.86608e+02	7.32000e+02	3.01922e+00	2.87984e+02
734	2.89661e+02	7.34000e+02	3.01669e+00	2.90984e+02
736	2.92722e+02	7.36000e+02	3.01399e+00	2.93983e+02
738	2.95826e+02	7.38000e+02	3.01113e+00	2.96983e+02
740	2.98913e+02	7.40000e+02	3.00803e+00	2.99983e+02
742	3.01916e+02	7.42000e+02	3.00478e+00	3.02983e+02
744	3.04952e+02	7.44000e+02	3.00125e+00	3.05982e+02
746	3.07976e+02	7.46000e+02	2.99752e+00	3.08982e+02
748	3.11057e+02	7.48000e+02	2.99345e+00	3.11982e+02
750	3.14143e+02	7.50000e+02	2.98912e+00	3.14982e+02
752	3.17204e+02	7.52000e+02	2.98434e+00	3.17981e+02
754	3.20281e+02	7.54000e+02	2.97925e+00	3.20981e+02
756	3.23317e+02	7.56000e+02	2.97364e+00	3.23981e+02
758	3.26365e+02	7.58000e+02	2.96771e+00	3.26981e+02
760	3.29399e+02	7.60000e+02	2.96116e+00	3.29980e+02
762	3.32451e+02	7.62000e+02	2.95417e+00	3.32980e+02
764	3.35473e+02	7.64000e+02	2.94644e+00	3.35980e+02
766	3.38507e+02	7.66000e+02	2.93825e+00	3.38980e+02
768	3.41512e+02	7.68000e+02	2.92926e+00	3.41979e+02
770	3.44557e+02	7.70000e+02	2.91965e+00	3.44979e+02
772	3.47574e+02	7.72000e+02	2.90883e+00	3.47979e+02
774	3.50581e+02	7.74000e+02	2.89686e+00	3.50979e+02
776	3.53589e+02	7.76000e+02	2.88271e+00	3.53978e+02
778	3.56588e+02	7.78000e+02	2.86669e+00	3.56978e+02
780	3.59560e+02	7.80000e+02	2.84761e+00	3.59978e+02
782	3.62546e+02	7.82000e+02	2.82673e+00	3.62978e+02
784	3.65542e+02	7.84000e+02	2.80059e+00	3.65977e+02
786	3.68493e+02	7.86000e+02	2.77032e+00	3.68977e+02
788	3.71450e+02	7.88000e+02	2.73491e+00	3.71977e+02
790	3.74417e+02	7.90000e+02	2.69270e+00	3.74977e+02
792	3.77391e+02	7.92000e+02	2.64129e+00	3.77976e+02
794	3.80363e+02	7.94000e+02	2.58041e+00	3.80976e+02
796	3.83311e+02	7.96000e+02	2.50944e+00	3.83976e+02
798	3.86246e+02	7.98000e+02	2.42889e+00	3.86976e+02
800	3.89150e+02	8.00000e+02	2.33796e+00	3.89975e+02
802	3.92078e+02	8.02000e+02	2.23892e+00	3.92975e+02
804	3.95024e+02	8.04000e+02	2.13058e+00	3.95975e+02
806	3.97993e+02	8.06000e+02	2.01519e+00	3.98975e+02
808	4.00975e+02	8.08000e+02	1.89219e+00	4.01974e+02
810	4.03954e+02	8.10000e+02	1.76583e+00	4.04974e+02
812	4.06885e+02	8.12000e+02	1.63456e+00	4.07974e+02
814	4.09856e+02	8.14000e+02	1.50236e+00	4.10974e+02
816	4.12817e+02	8.16000e+02	1.36776e+00	4.13973e+02
818	4.15821e+02	8.18000e+02	1.23237e+00	4.16973e+02
820	4.18825e+02	8.20000e+02	1.09600e+00	4.19973e+02
822	4.21872e+02	8.22000e+02	9.60183e-01	4.22973e+02
824	4.24937e+02	8.24000e+02	8.25927e-01	4.25972e+02
826	4.28039e+02	8.26000e+02	6.92527e-01	4.28972e+02
828	4.31158e+02	8.28000e+02	5.66842e-01	4.31972e+02
830	4.34290e+02	8.30000e+02	4.50042e-01	4.34972e+02
832	4.37478e+02	8.32000e+02	3.48945e-01	4.37971e+02
834	4.40853e+02	8.34000e+02	2.64972e-01	4.40971e+02
836	4.44326e+02	8.36000e+02	1.97930e-01	4.43971e+02
838	4.47387e+02	8.38000e+02	1.47356e-01	4.46971e+02
840	4.50534e+02	8.40000e+02	1.10714e-01	4.49970e+02
842	4.53543e+02	8.42000e+02	8.31462e-02	4.52970e+02
844	4.56578e+02	8.44000e+02	6.58242e-02	4.55970e+02
846	4.59584e+02	8.46000e+02	5.29152e-02	4.58970e+02
848	4.62527e+02	8.48000e+02	4.52441e-02	4.61970e+02
850	4.65340e+02	8.50000e+02	3.86425e-02	4.64969e+02
852	4.68179e+02	8.52000e+02	3.46968e-02	4.67969e+02
854	4.70823e+02	8.54000e+02	3.15948e-02	4.70969e+02
856	4.73560e+02	8.56000e+02	2.98201e-02	4.73969e+02
858	4.76415e+02	8.58000e+02	2.84487e-02	4.76968e+02
860	4.79283e+02	8.60000e+02	2.76894e-02	4.79968e+02
862	4.82196e+02	8.62000e+02	2.70998e-02	4.82968e+02
864	4.85152e+02	8.64000e+02	2.67606e-02	4.85968e+02
866	4.88074e+02	8.66000e+02	2.64967e-02	4.88967e+02
868	4.90974e+02	8.68000e+02	2.63437e-02	4.91967e+02
870	4.93915e+02	8.70000e+02	2.62296e-02	4.94967e+02
872	4.96913e+02	8.72000e+02	2.61747e-02	4.97967e+02
874	4.99911e+02	8.74000e+02	2.61421e-02	5.00966e+02
876	5.02873e+02	8.76000e+02	2.61377e-02	5.03966e+02
878	5.05837e+02	8.78000e+02	2.61158e-02	5.06966e+02
880	5.08801e+02	8.80000e+02	2.60653e-02	5.09966e+02
882	5.11814e+02	8.82000e+02	2.60082e-02	5.12965e+02
884	5.14824e+02	8.84000e+02	2.59613e-02	5.15965e+02
886	5.17849e+02	8.86000e+02	2.59381e-02	5.18965e+02
888	5.20836e+02	8.88000e+02	2.59356e-02	5.21965e+02
890	5.23840e+02	8.90000e+02	2.59138e-02	5.24964e+02
892	5.27018e+02	8.92000e+02	2.58686e-02	5.27964e+02
894	5.30127e+02	8.94000e+02	2.58190e-02	5.30964e+02
896	5.32860e+02	8.96000e+02	2.57556e-02	5.33964e+02
898	5.35615e+02	8.98000e+02	2.56919e-02	5.36963e+02
900	5.38505e+02	9.00000e+02	2.56327e-02	5.39963e+02
902	5.41419e+02	9.02000e+02	2.55856e-02	5.42963e+02
904	5.44344e+02	9.04000e+02	2.55464e-02	5.45963e+02
906	5.47180e+02	9.06000e+02	2.55042e-02	5.48962e+02
908	5.50066e+02	9.08000e+02	2.54693e-02	5.51962e+02
910	5.52868e+02	9.10000e+02	2.54454e-02	5.54962e+02
912	5.55718e+02	9.12000e+02	2.54286e-02	5.57962e+02
914	5.58521e+02	9.14000e+02	2.54052e-02	5.60961e+02
916	5.61464e+02	9.16000e+02	2.53864e-02	5.63961e+02
918	5.65014e+02	9.18000e+02	2.53924e-02	5.66961e+02
920	5.67974e+02	9.20000e+02	2.54292e-02	5.69961e+02
922	5.71006e+02	9.22000e+02	2.54550e-02	5.72960e+02
924	5.73916e+02	9.24000e+02	2.54675e-02	5.75960e+02
926	5.76905e+02	9.26000e+02	2.54691e-02	5.78960e+02
928	5.79714e+02	9.28000e+02	2.54471e-02	5.81960e+02
930	5.82561e+02	9.30000e+02	2.54108e-02	5.84959e+02
932	5.85496e+02	9.32000e+02	2.53680e-02	5.87959e+02
934	5.88435e+02	9.34000e+02	2.53499e-02	5.90959e+02
936	5.91324e+02	9.36000e+02	2.53575e-02	5.93959e+02
938	5.94261e+02	9.38000e+02	2.53575e-02	5.96958e+02
940	5.97155e+02	9.40000e+02	2.53492e-02	5.99958e+02
942	5.99984e+02	9.42000e+02	2.53438e-02	6.02958e+02
944	6.02906e+02	9.44000e+02	2.53335e-02	6.05958e+02
946	6.05792e+02	9.46000e+02	2.52974e-02	6.08957e+02
948	6.08736e+02	9.48000e+02	2.52284e-02	6.11957e+02
950	6.11692e+02	9.50000e+02	2.51679e-02	6.14957e+02
952	6.14668e+02	9.52000e+02	2.51279e-02	6.17957e+02
954	6.17893e+02	9.54000e+02	2.50999e-02	6.20956e+02
956	6.20899e+02	9.56000e+02	2.50829e-02	6.23956e+02
958	6.23825e+02	9.58000e+02	2.50717e-02	6.26956e+02
960	6.26844e+02	9.60000e+02	2.50785e-02	6.29956e+02
962	6.29763e+02	9.62000e+02	2.51008e-02	6.32956e+02
964	6.32777e+02	9.64000e+02	2.51362e-02	6.35955e+02
966	6.35813e+02	9.66000e+02	2.51599e-02	6.38955e+02
968	6.38765e+02	9.68000e+02	2.51603e-02	6.41955e+02
970	6.41659e+02	9.70000e+02	2.51429e-02	6.44954e+02
972	6.44647e+02	9.72000e+02	2.50944e-02	6.47954e+02
974	6.47586e+02	9.74000e+02	2.50374e-02	6.50954e+02
976	6.50492e+02	9.76000e+02	2.49781e-02	6.53954e+02
978	6.53516e+02	9.78000e+02	2.49388e-02	6.56953e+02
980	6.56521e+02	9.80000e+02	2.49314e-02	6.59953e+02
982	6.58221e+02	9.82000e+02	2.49622e-02	6.62953e+02
984	6.59817e+02	9.84000e+02	2.50749e-02	6.65953e+02
986	6.62006e+02	9.86000e+02	2.52246e-02	6.68953e+02
988	6.64145e+02	9.88000e+02	2.53765e-02	6.71952e+02
990	6.67090e+02	9.90000e+02	2.54376e-02	6.74952e+02
992	6.68858e+02	9.92000e+02	2.53710e-02	6.77952e+02
994	6.69990e+02	9.94000e+02	2.52884e-02	6.80952e+02
996	6.71094e+02	9.96000e+02	2.51849e-02	6.83951e+02
998	6.72483e+02	9.98000e+02	2.51067e-02	6.86951e+02
1000	6.73825e+02	1.00000e+03	2.50650e-02	6.89951e+02
1002	6.75124e+02	1.00200e+03	2.50219e-02	6.92951e+02
1004	6.76349e+02	1.00400e+03	2.50108e-02	6.95950e+02
1006	6.77530e+02	1.00600e+03	2.50057e-02	6.98950e+02
1007	6.78104e+02	1.00700e+03	2.50065e-02	7.00000e+02