Folder: Pyrolysis_BESKID/Experiments/TUBS/tga_nonisotherm (part 8)

File: tga_dynamic_n2_dyn10_piece_1mg_r3.txt
index	ts	t	weight	tr
[#]	[°C]	[s]	[mg]	[°C]
843	1.30925e+02	8.43000e+02	1.02668e+00	1.30500e+02
862	1.34123e+02	8.62000e+02	1.02687e+00	1.33667e+02
881	1.37323e+02	8.81000e+02	1.02674e+00	1.36833e+02
900	1.40540e+02	9.00000e+02	1.02670e+00	1.40000e+02
919	1.43731e+02	9.19000e+02	1.02664e+00	1.43167e+02
938	1.46970e+02	9.38000e+02	1.02706e+00	1.46333e+02
957	1.50168e+02	9.57000e+02	1.02662e+00	1.49500e+02
976	1.53370e+02	9.76000e+02	1.02629e+00	1.52667e+02
995	1.56583e+02	9.95000e+02	1.02625e+00	1.55833e+02
1014	1.59797e+02	1.01400e+03	1.02616e+00	1.59000e+02
1033	1.63001e+02	1.03300e+03	1.02579e+00	1.62167e+02
1052	1.66213e+02	1.05200e+03	1.02576e+00	1.65333e+02
1071	1.69435e+02	1.07100e+03	1.02564e+00	1.68500e+02
1090	1.72651e+02	1.09000e+03	1.02523e+00	1.71667e+02
1109	1.75854e+02	1.10900e+03	1.02481e+00	1.74833e+02
1128	1.79072e+02	1.12800e+03	1.02432e+00	1.78000e+02
1147	1.82291e+02	1.14700e+03	1.02347e+00	1.81167e+02
1166	1.85493e+02	1.16600e+03	1.02219e+00	1.84333e+02
1185	1.88709e+02	1.18500e+03	1.02136e+00	1.87500e+02
1204	1.91896e+02	1.20400e+03	1.02031e+00	1.90667e+02
1223	1.95094e+02	1.22300e+03	1.01875e+00	1.93833e+02
1242	1.98278e+02	1.24200e+03	1.01735e+00	1.97000e+02
1261	2.01452e+02	1.26100e+03	1.01577e+00	2.00167e+02
1280	2.04646e+02	1.28000e+03	1.01431e+00	2.03333e+02
1299	2.07829e+02	1.29900e+03	1.01301e+00	2.06500e+02
1318	2.11018e+02	1.31800e+03	1.01156e+00	2.09667e+02
1337	2.14190e+02	1.33700e+03	1.01032e+00	2.12833e+02
1356	2.17361e+02	1.35600e+03	1.00908e+00	2.16000e+02
1375	2.20538e+02	1.37500e+03	1.00751e+00	2.19167e+02
1394	2.23716e+02	1.39400e+03	1.00610e+00	2.22333e+02
1413	2.26881e+02	1.41300e+03	1.00459e+00	2.25500e+02
1432	2.30077e+02	1.43200e+03	1.00306e+00	2.28667e+02
1451	2.33274e+02	1.45100e+03	1.00185e+00	2.31833e+02
1470	2.36466e+02	1.47000e+03	1.00036e+00	2.35000e+02
1489	2.39661e+02	1.48900e+03	9.98980e-01	2.38167e+02
1508	2.42924e+02	1.50800e+03	9.97593e-01	2.41333e+02
1527	2.46111e+02	1.52700e+03	9.96269e-01	2.44500e+02
1546	2.49326e+02	1.54600e+03	9.94722e-01	2.47667e+02
1565	2.52577e+02	1.56500e+03	9.93171e-01	2.50833e+02
1584	2.55815e+02	1.58400e+03	9.91803e-01	2.54000e+02
1603	2.59012e+02	1.60300e+03	9.90826e-01	2.57167e+02
1622	2.62237e+02	1.62200e+03	9.89248e-01	2.60333e+02
1641	2.65450e+02	1.64100e+03	9.87825e-01	2.63500e+02
1660	2.68686e+02	1.66000e+03	9.86317e-01	2.66667e+02
1679	2.71911e+02	1.67900e+03	9.84500e-01	2.69833e+02
1698	2.75142e+02	1.69800e+03	9.82968e-01	2.73000e+02
1717	2.78415e+02	1.71700e+03	9.80754e-01	2.76167e+02
1736	2.81620e+02	1.73600e+03	9.78894e-01	2.79333e+02
1755	2.84871e+02	1.75500e+03	9.76461e-01	2.82500e+02
1774	2.88086e+02	1.77400e+03	9.73865e-01	2.85667e+02
1793	2.91180e+02	1.79300e+03	9.71002e-01	2.88833e+02
1812	2.94308e+02	1.81200e+03	9.67563e-01	2.92000e+02
1831	2.97565e+02	1.83100e+03	9.63873e-01	2.95167e+02
1850	3.00677e+02	1.85000e+03	9.60046e-01	2.98333e+02
1869	3.03831e+02	1.86900e+03	9.56027e-01	3.01500e+02
1888	3.07020e+02	1.88800e+03	9.51498e-01	3.04667e+02
1907	3.10175e+02	1.90700e+03	9.47305e-01	3.07833e+02
1926	3.13340e+02	1.92600e+03	9.42898e-01	3.11000e+02
1945	3.16499e+02	1.94500e+03	9.38145e-01	3.14167e+02
1964	3.19745e+02	1.96400e+03	9.33109e-01	3.17333e+02
1983	3.23112e+02	1.98300e+03	9.27314e-01	3.20500e+02
2002	3.26472e+02	2.00200e+03	9.20537e-01	3.23667e+02
2021	3.29895e+02	2.02100e+03	9.12519e-01	3.26833e+02
2040	3.33136e+02	2.04000e+03	9.02467e-01	3.30000e+02
2059	3.36573e+02	2.05900e+03	8.89959e-01	3.33167e+02
2078	3.39706e+02	2.07800e+03	8.75884e-01	3.36333e+02
2097	3.42993e+02	2.09700e+03	8.57475e-01	3.39500e+02
2116	3.46293e+02	2.11600e+03	8.33476e-01	3.42667e+02
2135	3.49531e+02	2.13500e+03	8.05207e-01	3.45833e+02
2154	3.52480e+02	2.15400e+03	7.71731e-01	3.49000e+02
2173	3.55577e+02	2.17300e+03	7.30702e-01	3.52167e+02
2192	3.58706e+02	2.19200e+03	6.81701e-01	3.55333e+02
2211	3.61870e+02	2.21100e+03	6.27381e-01	3.58500e+02
2230	3.65224e+02	2.23000e+03	5.69339e-01	3.61667e+02
2249	3.68604e+02	2.24900e+03	5.07669e-01	3.64833e+02
2268	3.71550e+02	2.26800e+03	4.45009e-01	3.68000e+02
2287	3.74665e+02	2.28700e+03	3.80383e-01	3.71167e+02
2306	3.77748e+02	2.30600e+03	3.17707e-01	3.74333e+02
2325	3.80894e+02	2.32500e+03	2.56077e-01	3.77500e+02
2344	3.84083e+02	2.34400e+03	2.00324e-01	3.80667e+02
2363	3.87349e+02	2.36300e+03	1.52890e-01	3.83833e+02
2382	3.90666e+02	2.38200e+03	1.14521e-01	3.87000e+02
2401	3.94157e+02	2.40100e+03	8.44330e-02	3.90167e+02
2420	3.97028e+02	2.42000e+03	6.11631e-02	3.93333e+02
2439	3.99911e+02	2.43900e+03	4.41800e-02	3.96500e+02
2458	4.02885e+02	2.45800e+03	3.18265e-02	3.99667e+02
2477	4.05957e+02	2.47700e+03	2.31986e-02	4.02833e+02
2496	4.09015e+02	2.49600e+03	1.67208e-02	4.06000e+02
2515	4.12142e+02	2.51500e+03	1.19445e-02	4.09167e+02
2534	4.15282e+02	2.53400e+03	8.64197e-03	4.12333e+02
2553	4.18761e+02	2.55300e+03	6.25468e-03	4.15500e+02
2572	4.21812e+02	2.57200e+03	4.51094e-03	4.18667e+02
2591	4.24905e+02	2.59100e+03	2.83949e-03	4.21833e+02
2610	4.28129e+02	2.61000e+03	1.28022e-03	4.25000e+02
2629	4.31263e+02	2.62900e+03	5.73424e-04	4.28167e+02
2648	4.34267e+02	2.64800e+03	-2.04098e-04	4.31333e+02
2667	4.37335e+02	2.66700e+03	-4.30880e-04	4.34500e+02
2686	4.40381e+02	2.68600e+03	-7.60837e-04	4.37667e+02
2705	4.43068e+02	2.70500e+03	-8.78767e-04	4.40833e+02
2724	4.46039e+02	2.72400e+03	-1.09184e-03	4.44000e+02
2743	4.49105e+02	2.74300e+03	-8.36548e-04	4.47167e+02
2762	4.52180e+02	2.76200e+03	-1.15724e-03	4.50333e+02
2781	4.55284e+02	2.78100e+03	-1.44130e-03	4.53500e+02
2800	4.58416e+02	2.80000e+03	-1.15520e-03	4.56667e+02
2819	4.61560e+02	2.81900e+03	-1.46918e-03	4.59833e+02
2838	4.64708e+02	2.83800e+03	-1.49384e-03	4.63000e+02
2857	4.67830e+02	2.85700e+03	-1.78878e-03	4.66167e+02
2876	4.70904e+02	2.87600e+03	-1.64721e-03	4.69333e+02
2895	4.74012e+02	2.89500e+03	-1.97652e-03	4.72500e+02
2914	4.77134e+02	2.91400e+03	-1.74557e-03	4.75667e+02
2933	4.80273e+02	2.93300e+03	-1.89641e-03	4.78833e+02
2952	4.83399e+02	2.95200e+03	-1.69559e-03	4.82000e+02
2971	4.86523e+02	2.97100e+03	-2.02714e-03	4.85167e+02
2990	4.89619e+02	2.99000e+03	-2.10706e-03	4.88333e+02
3009	4.92691e+02	3.00900e+03	-1.85361e-03	4.91500e+02
3028	4.95839e+02	3.02800e+03	-1.81242e-03	4.94667e+02
3047	4.98980e+02	3.04700e+03	-1.84405e-03	4.97833e+02
3066	5.02124e+02	3.06600e+03	-2.05051e-03	5.01000e+02
3085	5.05233e+02	3.08500e+03	-1.75588e-03	5.04167e+02
3104	5.08315e+02	3.10400e+03	-2.07149e-03	5.07333e+02
3123	5.11465e+02	3.12300e+03	-2.11074e-03	5.10500e+02
3142	5.14602e+02	3.14200e+03	-2.09121e-03	5.13667e+02
3161	5.17737e+02	3.16100e+03	-1.91902e-03	5.16833e+02
3180	5.20919e+02	3.18000e+03	-2.16309e-03	5.20000e+02
3199	5.24060e+02	3.19900e+03	-2.22081e-03	5.23167e+02
3218	5.27187e+02	3.21800e+03	-2.08097e-03	5.26333e+02
3237	5.30346e+02	3.23700e+03	-2.22975e-03	5.29500e+02
3256	5.33535e+02	3.25600e+03	-2.16843e-03	5.32667e+02
3275	5.36713e+02	3.27500e+03	-2.25953e-03	5.35833e+02
3294	5.39874e+02	3.29400e+03	-2.36915e-03	5.39000e+02
3313	5.43001e+02	3.31300e+03	-2.50193e-03	5.42167e+02
3332	5.46133e+02	3.33200e+03	-2.19161e-03	5.45333e+02
3351	5.49253e+02	3.35100e+03	-2.45017e-03	5.48500e+02
3370	5.52383e+02	3.37000e+03	-2.43006e-03	5.51667e+02
3389	5.55525e+02	3.38900e+03	-2.31991e-03	5.54833e+02
3408	5.58689e+02	3.40800e+03	-2.74620e-03	5.58000e+02
3427	5.61861e+02	3.42700e+03	-2.53626e-03	5.61167e+02
3446	5.64975e+02	3.44600e+03	-2.66111e-03	5.64333e+02
3465	5.68086e+02	3.46500e+03	-2.60205e-03	5.67500e+02
3484	5.71172e+02	3.48400e+03	-2.91480e-03	5.70667e+02
3503	5.74279e+02	3.50300e+03	-2.70590e-03	5.73833e+02
3522	5.77386e+02	3.52200e+03	-3.00271e-03	5.77000e+02
3541	5.80485e+02	3.54100e+03	-2.93227e-03	5.80167e+02
3560	5.83613e+02	3.56000e+03	-3.07278e-03	5.83333e+02
3579	5.86732e+02	3.57900e+03	-3.07798e-03	5.86500e+02
3598	5.89865e+02	3.59800e+03	-3.10330e-03	5.89667e+02
3617	5.93028e+02	3.61700e+03	-2.91922e-03	5.92833e+02
3636	5.96265e+02	3.63600e+03	-2.91796e-03	5.96000e+02
3655	5.99478e+02	3.65500e+03	-3.23577e-03	5.99167e+02
3674	6.02700e+02	3.67400e+03	-3.18870e-03	6.02333e+02
3693	6.05877e+02	3.69300e+03	-3.15177e-03	6.05500e+02
3712	6.09032e+02	3.71200e+03	-3.24052e-03	6.08667e+02
3731	6.12203e+02	3.73100e+03	-3.19848e-03	6.11833e+02
3750	6.15363e+02	3.75000e+03	-3.45040e-03	6.15000e+02
3769	6.18527e+02	3.76900e+03	-3.47479e-03	6.18167e+02
3788	6.21654e+02	3.78800e+03	-3.39837e-03	6.21333e+02
3807	6.24778e+02	3.80700e+03	-3.29481e-03	6.24500e+02
3826	6.27924e+02	3.82600e+03	-3.45084e-03	6.27667e+02
3845	6.31115e+02	3.84500e+03	-3.50212e-03	6.30833e+02
3864	6.34293e+02	3.86400e+03	-3.25017e-03	6.34000e+02
3883	6.37432e+02	3.88300e+03	-3.56503e-03	6.37167e+02
3902	6.40599e+02	3.90200e+03	-3.57702e-03	6.40333e+02
3921	6.43784e+02	3.92100e+03	-3.53958e-03	6.43500e+02
3940	6.46962e+02	3.94000e+03	-3.66774e-03	6.46667e+02
3959	6.50094e+02	3.95900e+03	-3.55004e-03	6.49833e+02
3978	6.53221e+02	3.97800e+03	-3.65640e-03	6.53000e+02
3997	6.56384e+02	3.99700e+03	-3.62525e-03	6.56167e+02
4016	6.59579e+02	4.01600e+03	-3.72116e-03	6.59333e+02
4035	6.62781e+02	4.03500e+03	-3.82388e-03	6.62500e+02
4054	6.65925e+02	4.05400e+03	-3.92164e-03	6.65667e+02
4073	6.69071e+02	4.07300e+03	-3.67163e-03	6.68833e+02
4092	6.72201e+02	4.09200e+03	-3.71693e-03	6.72000e+02
4111	6.75346e+02	4.11100e+03	-3.71276e-03	6.75167e+02
4130	6.78500e+02	4.13000e+03	-3.96786e-03	6.78333e+02
4149	6.81647e+02	4.14900e+03	-4.09635e-03	6.81500e+02
4168	6.84799e+02	4.16800e+03	-3.88201e-03	6.84667e+02
4187	6.87967e+02	4.18700e+03	-4.11661e-03	6.87833e+02
4206	6.91119e+02	4.20600e+03	-3.77329e-03	6.91000e+02
4225	6.94264e+02	4.22500e+03	-4.02503e-03	6.94167e+02
4244	6.96874e+02	4.24400e+03	-3.99906e-03	6.97333e+02
4260	6.98234e+02	4.26000e+03	-4.11398e-03	7.00000e+02

File: tga_dynamic_n2_dyn10_piece_2mg_r1.txt
index	ts	t	weight	tr
[#]	[°C]	[s]	[mg]	[°C]
843	1.30705e+02	8.43000e+02	2.00321e+00	1.30500e+02
862	1.33905e+02	8.62000e+02	2.00281e+00	1.33667e+02
881	1.37102e+02	8.81000e+02	2.00262e+00	1.36833e+02
900	1.40317e+02	9.00000e+02	2.00275e+00	1.40000e+02
919	1.43522e+02	9.19000e+02	2.00248e+00	1.43167e+02
938	1.46721e+02	9.38000e+02	2.00264e+00	1.46333e+02
957	1.49941e+02	9.57000e+02	2.00231e+00	1.49500e+02
976	1.53138e+02	9.76000e+02	2.00192e+00	1.52667e+02
995	1.56356e+02	9.95000e+02	2.00105e+00	1.55833e+02
1014	1.59579e+02	1.01400e+03	2.00156e+00	1.59000e+02
1033	1.62797e+02	1.03300e+03	2.00128e+00	1.62167e+02
1052	1.66013e+02	1.05200e+03	2.00082e+00	1.65333e+02
1071	1.69219e+02	1.07100e+03	2.00045e+00	1.68500e+02
1090	1.72427e+02	1.09000e+03	2.00014e+00	1.71667e+02
1109	1.75637e+02	1.10900e+03	1.99959e+00	1.74833e+02
1128	1.78860e+02	1.12800e+03	1.99891e+00	1.78000e+02
1147	1.82079e+02	1.14700e+03	1.99773e+00	1.81167e+02
1166	1.85281e+02	1.16600e+03	1.99595e+00	1.84333e+02
1185	1.88471e+02	1.18500e+03	1.99435e+00	1.87500e+02
1204	1.91661e+02	1.20400e+03	1.99293e+00	1.90667e+02
1223	1.94886e+02	1.22300e+03	1.98987e+00	1.93833e+02
1242	1.98076e+02	1.24200e+03	1.98819e+00	1.97000e+02
1261	2.01297e+02	1.26100e+03	1.98549e+00	2.00167e+02
1280	2.04534e+02	1.28000e+03	1.98302e+00	2.03333e+02
1299	2.07806e+02	1.29900e+03	1.98051e+00	2.06500e+02
1318	2.11050e+02	1.31800e+03	1.97801e+00	2.09667e+02
1337	2.14240e+02	1.33700e+03	1.97564e+00	2.12833e+02
1356	2.17422e+02	1.35600e+03	1.97323e+00	2.16000e+02
1375	2.20604e+02	1.37500e+03	1.97043e+00	2.19167e+02
1394	2.23806e+02	1.39400e+03	1.96808e+00	2.22333e+02
1413	2.26998e+02	1.41300e+03	1.96493e+00	2.25500e+02
1432	2.30198e+02	1.43200e+03	1.96221e+00	2.28667e+02
1451	2.33374e+02	1.45100e+03	1.95919e+00	2.31833e+02
1470	2.36553e+02	1.47000e+03	1.95681e+00	2.35000e+02
1489	2.39712e+02	1.48900e+03	1.95370e+00	2.38167e+02
1508	2.42880e+02	1.50800e+03	1.95081e+00	2.41333e+02
1527	2.46057e+02	1.52700e+03	1.94849e+00	2.44500e+02
1546	2.49231e+02	1.54600e+03	1.94512e+00	2.47667e+02
1565	2.52407e+02	1.56500e+03	1.94244e+00	2.50833e+02
1584	2.55578e+02	1.58400e+03	1.93925e+00	2.54000e+02
1603	2.58722e+02	1.60300e+03	1.93691e+00	2.57167e+02
1622	2.61857e+02	1.62200e+03	1.93411e+00	2.60333e+02
1641	2.65041e+02	1.64100e+03	1.93126e+00	2.63500e+02
1660	2.68186e+02	1.66000e+03	1.92814e+00	2.66667e+02
1679	2.71351e+02	1.67900e+03	1.92504e+00	2.69833e+02
1698	2.74526e+02	1.69800e+03	1.92206e+00	2.73000e+02
1717	2.77690e+02	1.71700e+03	1.91829e+00	2.76167e+02
1736	2.80863e+02	1.73600e+03	1.91476e+00	2.79333e+02
1755	2.84079e+02	1.75500e+03	1.91080e+00	2.82500e+02
1774	2.87245e+02	1.77400e+03	1.90610e+00	2.85667e+02
1793	2.90441e+02	1.79300e+03	1.90061e+00	2.88833e+02
1812	2.93602e+02	1.81200e+03	1.89464e+00	2.92000e+02
1831	2.96755e+02	1.83100e+03	1.88803e+00	2.95167e+02
1850	2.99876e+02	1.85000e+03	1.88007e+00	2.98333e+02
1869	3.02917e+02	1.86900e+03	1.87062e+00	3.01500e+02
1888	3.05988e+02	1.88800e+03	1.85937e+00	3.04667e+02
1907	3.09089e+02	1.90700e+03	1.84989e+00	3.07833e+02
1926	3.12230e+02	1.92600e+03	1.84004e+00	3.11000e+02
1945	3.15392e+02	1.94500e+03	1.83060e+00	3.14167e+02
1964	3.18549e+02	1.96400e+03	1.82024e+00	3.17333e+02
1983	3.21715e+02	1.98300e+03	1.80845e+00	3.20500e+02
2002	3.24895e+02	2.00200e+03	1.79510e+00	3.23667e+02
2021	3.28052e+02	2.02100e+03	1.77911e+00	3.26833e+02
2040	3.31194e+02	2.04000e+03	1.75945e+00	3.30000e+02
2059	3.34335e+02	2.05900e+03	1.73566e+00	3.33167e+02
2078	3.37496e+02	2.07800e+03	1.70742e+00	3.36333e+02
2097	3.40658e+02	2.09700e+03	1.67230e+00	3.39500e+02
2116	3.43796e+02	2.11600e+03	1.62820e+00	3.42667e+02
2135	3.46984e+02	2.13500e+03	1.57534e+00	3.45833e+02
2154	3.50160e+02	2.15400e+03	1.51112e+00	3.49000e+02
2173	3.53397e+02	2.17300e+03	1.43261e+00	3.52167e+02
2192	3.56691e+02	2.19200e+03	1.34287e+00	3.55333e+02
2211	3.59819e+02	2.21100e+03	1.24279e+00	3.58500e+02
2230	3.62964e+02	2.23000e+03	1.13384e+00	3.61667e+02
2249	3.66104e+02	2.24900e+03	1.01568e+00	3.64833e+02
2268	3.69258e+02	2.26800e+03	8.92591e-01	3.68000e+02
2287	3.72406e+02	2.28700e+03	7.66198e-01	3.71167e+02
2306	3.75565e+02	2.30600e+03	6.39282e-01	3.74333e+02
2325	3.78768e+02	2.32500e+03	5.19333e-01	3.77500e+02
2344	3.82037e+02	2.34400e+03	4.08933e-01	3.80667e+02
2363	3.85419e+02	2.36300e+03	3.13085e-01	3.83833e+02
2382	3.88616e+02	2.38200e+03	2.33902e-01	3.87000e+02
2401	3.91828e+02	2.40100e+03	1.70477e-01	3.90167e+02
2420	3.95073e+02	2.42000e+03	1.22019e-01	3.93333e+02
2439	3.98302e+02	2.43900e+03	8.58281e-02	3.96500e+02
2458	4.01482e+02	2.45800e+03	6.02183e-02	3.99667e+02
2477	4.04672e+02	2.47700e+03	4.20754e-02	4.02833e+02
2496	4.07844e+02	2.49600e+03	2.88857e-02	4.06000e+02
2515	4.10947e+02	2.51500e+03	1.98788e-02	4.09167e+02
2534	4.14036e+02	2.53400e+03	1.31669e-02	4.12333e+02
2553	4.17145e+02	2.55300e+03	8.30097e-03	4.15500e+02
2572	4.20266e+02	2.57200e+03	4.45320e-03	4.18667e+02
2591	4.23396e+02	2.59100e+03	1.88780e-03	4.21833e+02
2610	4.26520e+02	2.61000e+03	-1.04004e-03	4.25000e+02
2629	4.29596e+02	2.62900e+03	-2.44283e-03	4.28167e+02
2648	4.32660e+02	2.64800e+03	-4.01972e-03	4.31333e+02
2667	4.35728e+02	2.66700e+03	-4.98253e-03	4.34500e+02
2686	4.38833e+02	2.68600e+03	-5.31149e-03	4.37667e+02
2705	4.41934e+02	2.70500e+03	-5.59871e-03	4.40833e+02
2724	4.45081e+02	2.72400e+03	-5.72025e-03	4.44000e+02
2743	4.48193e+02	2.74300e+03	-5.97707e-03	4.47167e+02
2762	4.51314e+02	2.76200e+03	-6.14165e-03	4.50333e+02
2781	4.54403e+02	2.78100e+03	-6.68659e-03	4.53500e+02
2800	4.57520e+02	2.80000e+03	-6.28700e-03	4.56667e+02
2819	4.60609e+02	2.81900e+03	-7.20127e-03	4.59833e+02
2838	4.63690e+02	2.83800e+03	-6.77675e-03	4.63000e+02
2857	4.66829e+02	2.85700e+03	-7.21662e-03	4.66167e+02
2876	4.69957e+02	2.87600e+03	-6.97840e-03	4.69333e+02
2895	4.73090e+02	2.89500e+03	-7.32126e-03	4.72500e+02
2914	4.76217e+02	2.91400e+03	-7.44331e-03	4.75667e+02
2933	4.79357e+02	2.93300e+03	-7.34801e-03	4.78833e+02
2952	4.82478e+02	2.95200e+03	-7.80112e-03	4.82000e+02
2971	4.85603e+02	2.97100e+03	-7.61256e-03	4.85167e+02
2990	4.88737e+02	2.99000e+03	-7.72940e-03	4.88333e+02
3009	4.91889e+02	3.00900e+03	-8.01648e-03	4.91500e+02
3028	4.95055e+02	3.02800e+03	-7.86532e-03	4.94667e+02
3047	4.98240e+02	3.04700e+03	-7.39165e-03	4.97833e+02
3066	5.01378e+02	3.06600e+03	-7.96448e-03	5.01000e+02
3085	5.04554e+02	3.08500e+03	-7.88982e-03	5.04167e+02
3104	5.07713e+02	3.10400e+03	-7.86006e-03	5.07333e+02
3123	5.10848e+02	3.12300e+03	-7.90611e-03	5.10500e+02
3142	5.13994e+02	3.14200e+03	-7.91757e-03	5.13667e+02
3161	5.17152e+02	3.16100e+03	-7.69635e-03	5.16833e+02
3180	5.20308e+02	3.18000e+03	-7.64510e-03	5.20000e+02
3199	5.23458e+02	3.19900e+03	-8.05855e-03	5.23167e+02
3218	5.26638e+02	3.21800e+03	-7.82912e-03	5.26333e+02
3237	5.29791e+02	3.23700e+03	-8.17026e-03	5.29500e+02
3256	5.32999e+02	3.25600e+03	-7.67030e-03	5.32667e+02
3275	5.36167e+02	3.27500e+03	-8.08083e-03	5.35833e+02
3294	5.39270e+02	3.29400e+03	-8.15662e-03	5.39000e+02
3313	5.42430e+02	3.31300e+03	-7.98013e-03	5.42167e+02
3332	5.45587e+02	3.33200e+03	-8.07776e-03	5.45333e+02
3351	5.48721e+02	3.35100e+03	-8.02271e-03	5.48500e+02
3370	5.51839e+02	3.37000e+03	-8.45695e-03	5.51667e+02
3389	5.54952e+02	3.38900e+03	-7.95700e-03	5.54833e+02
3408	5.58086e+02	3.40800e+03	-8.16846e-03	5.58000e+02
3427	5.61233e+02	3.42700e+03	-8.06445e-03	5.61167e+02
3446	5.64338e+02	3.44600e+03	-8.55633e-03	5.64333e+02
3465	5.67461e+02	3.46500e+03	-8.34696e-03	5.67500e+02
3484	5.70569e+02	3.48400e+03	-8.44492e-03	5.70667e+02
3503	5.73670e+02	3.50300e+03	-8.54127e-03	5.73833e+02
3522	5.76784e+02	3.52200e+03	-8.81747e-03	5.77000e+02
3541	5.79894e+02	3.54100e+03	-8.83123e-03	5.80167e+02
3560	5.83015e+02	3.56000e+03	-8.78726e-03	5.83333e+02
3579	5.86132e+02	3.57900e+03	-8.74571e-03	5.86500e+02
3598	5.89263e+02	3.59800e+03	-9.07331e-03	5.89667e+02
3617	5.92410e+02	3.61700e+03	-8.89439e-03	5.92833e+02
3636	5.95576e+02	3.63600e+03	-8.66677e-03	5.96000e+02
3655	5.98717e+02	3.65500e+03	-9.09377e-03	5.99167e+02
3674	6.01847e+02	3.67400e+03	-8.96208e-03	6.02333e+02
3693	6.05039e+02	3.69300e+03	-9.16480e-03	6.05500e+02
3712	6.08292e+02	3.71200e+03	-9.31699e-03	6.08667e+02
3731	6.11593e+02	3.73100e+03	-9.30059e-03	6.11833e+02
3750	6.14964e+02	3.75000e+03	-9.17090e-03	6.15000e+02
3769	6.18087e+02	3.76900e+03	-9.74784e-03	6.18167e+02
3788	6.21272e+02	3.78800e+03	-9.51249e-03	6.21333e+02
3807	6.24341e+02	3.80700e+03	-9.41591e-03	6.24500e+02
3826	6.27429e+02	3.82600e+03	-9.58301e-03	6.27667e+02
3845	6.30558e+02	3.84500e+03	-9.53659e-03	6.30833e+02
3864	6.33672e+02	3.86400e+03	-9.48876e-03	6.34000e+02
3883	6.36810e+02	3.88300e+03	-9.60563e-03	6.37167e+02
3902	6.39967e+02	3.90200e+03	-9.30053e-03	6.40333e+02
3921	6.43118e+02	3.92100e+03	-1.03049e-02	6.43500e+02
3940	6.46299e+02	3.94000e+03	-9.43593e-03	6.46667e+02
3959	6.49443e+02	3.95900e+03	-9.46967e-03	6.49833e+02
3978	6.52582e+02	3.97800e+03	-9.69058e-03	6.53000e+02
3997	6.55749e+02	3.99700e+03	-9.52045e-03	6.56167e+02
4016	6.58904e+02	4.01600e+03	-9.69358e-03	6.59333e+02
4035	6.62021e+02	4.03500e+03	-9.86533e-03	6.62500e+02
4054	6.65118e+02	4.05400e+03	-9.86760e-03	6.65667e+02
4073	6.68248e+02	4.07300e+03	-9.53582e-03	6.68833e+02
4092	6.71404e+02	4.09200e+03	-9.87484e-03	6.72000e+02
4111	6.74560e+02	4.11100e+03	-9.57167e-03	6.75167e+02
4130	6.77719e+02	4.13000e+03	-1.00040e-02	6.78333e+02
4149	6.80857e+02	4.14900e+03	-1.01462e-02	6.81500e+02
4168	6.83999e+02	4.16800e+03	-9.96265e-03	6.84667e+02
4187	6.87154e+02	4.18700e+03	-9.68771e-03	6.87833e+02
4206	6.90277e+02	4.20600e+03	-9.80266e-03	6.91000e+02
4225	6.93421e+02	4.22500e+03	-9.66532e-03	6.94167e+02
4244	6.95963e+02	4.24400e+03	-9.76521e-03	6.97333e+02
4260	6.97302e+02	4.26000e+03	-9.89953e-03	7.00000e+02