Folder: Pyrolysis_BESKID/Experiments/TUBS/tga_nonisotherm (part 34)

File: tga_dynamic_n2_dyn45_piece_3mg_r3.txt
index	ts	t	weight	tr
[#]	[°C]	[s]	[mg]	[°C]
657	1.32269e+02	6.57000e+02	3.04336e+00	1.32752e+02
662	1.36125e+02	6.62000e+02	3.04340e+00	1.36502e+02
667	1.39956e+02	6.67000e+02	3.04355e+00	1.40252e+02
672	1.43767e+02	6.72000e+02	3.04360e+00	1.44002e+02
677	1.47582e+02	6.77000e+02	3.04249e+00	1.47752e+02
682	1.51392e+02	6.82000e+02	3.04170e+00	1.51503e+02
687	1.55215e+02	6.87000e+02	3.04197e+00	1.55253e+02
692	1.59034e+02	6.92000e+02	3.04225e+00	1.59003e+02
697	1.62839e+02	6.97000e+02	3.04202e+00	1.62753e+02
702	1.66651e+02	7.02000e+02	3.04157e+00	1.66503e+02
707	1.70458e+02	7.07000e+02	3.04129e+00	1.70253e+02
712	1.74257e+02	7.12000e+02	3.04098e+00	1.74003e+02
717	1.78075e+02	7.17000e+02	3.04035e+00	1.77754e+02
722	1.81880e+02	7.22000e+02	3.04006e+00	1.81504e+02
727	1.85690e+02	7.27000e+02	3.03993e+00	1.85254e+02
732	1.89501e+02	7.32000e+02	3.03949e+00	1.89004e+02
737	1.93314e+02	7.37000e+02	3.03867e+00	1.92754e+02
742	1.97116e+02	7.42000e+02	3.03731e+00	1.96504e+02
747	2.00933e+02	7.47000e+02	3.03581e+00	2.00255e+02
752	2.04750e+02	7.52000e+02	3.03420e+00	2.04005e+02
757	2.08565e+02	7.57000e+02	3.03229e+00	2.07755e+02
762	2.12386e+02	7.62000e+02	3.03028e+00	2.11505e+02
767	2.16202e+02	7.67000e+02	3.02783e+00	2.15255e+02
772	2.20019e+02	7.72000e+02	3.02481e+00	2.19005e+02
777	2.23851e+02	7.77000e+02	3.02217e+00	2.22755e+02
782	2.27644e+02	7.82000e+02	3.01986e+00	2.26506e+02
787	2.31444e+02	7.87000e+02	3.01728e+00	2.30256e+02
792	2.35314e+02	7.92000e+02	3.01445e+00	2.34006e+02
797	2.39163e+02	7.97000e+02	3.01138e+00	2.37756e+02
802	2.43017e+02	8.02000e+02	3.00830e+00	2.41506e+02
807	2.46859e+02	8.07000e+02	3.00556e+00	2.45256e+02
812	2.50679e+02	8.12000e+02	3.00275e+00	2.49007e+02
817	2.54506e+02	8.17000e+02	2.99929e+00	2.52757e+02
822	2.58339e+02	8.22000e+02	2.99588e+00	2.56507e+02
827	2.62175e+02	8.27000e+02	2.99255e+00	2.60257e+02
832	2.65964e+02	8.32000e+02	2.98883e+00	2.64007e+02
837	2.69688e+02	8.37000e+02	2.98529e+00	2.67757e+02
842	2.73436e+02	8.42000e+02	2.98170e+00	2.71507e+02
847	2.77221e+02	8.47000e+02	2.97818e+00	2.75258e+02
852	2.81023e+02	8.52000e+02	2.97390e+00	2.79008e+02
857	2.84821e+02	8.57000e+02	2.96913e+00	2.82758e+02
862	2.88660e+02	8.62000e+02	2.96504e+00	2.86508e+02
867	2.92542e+02	8.67000e+02	2.96081e+00	2.90258e+02
872	2.96401e+02	8.72000e+02	2.95573e+00	2.94008e+02
877	3.00200e+02	8.77000e+02	2.94993e+00	2.97759e+02
882	3.04062e+02	8.82000e+02	2.94388e+00	3.01509e+02
887	3.07878e+02	8.87000e+02	2.93750e+00	3.05259e+02
892	3.11741e+02	8.92000e+02	2.92994e+00	3.09009e+02
897	3.15568e+02	8.97000e+02	2.92140e+00	3.12759e+02
902	3.19523e+02	9.02000e+02	2.91162e+00	3.16509e+02
907	3.23349e+02	9.07000e+02	2.90111e+00	3.20259e+02
912	3.27096e+02	9.12000e+02	2.89048e+00	3.24010e+02
917	3.30916e+02	9.17000e+02	2.87908e+00	3.27760e+02
922	3.34749e+02	9.22000e+02	2.86718e+00	3.31510e+02
927	3.38548e+02	9.27000e+02	2.85426e+00	3.35260e+02
932	3.42324e+02	9.32000e+02	2.83955e+00	3.39010e+02
937	3.46072e+02	9.37000e+02	2.82257e+00	3.42760e+02
942	3.49828e+02	9.42000e+02	2.80213e+00	3.46510e+02
947	3.53564e+02	9.47000e+02	2.77711e+00	3.50261e+02
952	3.57287e+02	9.52000e+02	2.74477e+00	3.54011e+02
957	3.61180e+02	9.57000e+02	2.70200e+00	3.57761e+02
962	3.64864e+02	9.62000e+02	2.64483e+00	3.61511e+02
967	3.68518e+02	9.67000e+02	2.56906e+00	3.65261e+02
972	3.72213e+02	9.72000e+02	2.47482e+00	3.69011e+02
977	3.75917e+02	9.77000e+02	2.35879e+00	3.72762e+02
982	3.79590e+02	9.82000e+02	2.22472e+00	3.76512e+02
987	3.83294e+02	9.87000e+02	2.06699e+00	3.80262e+02
992	3.87157e+02	9.92000e+02	1.89223e+00	3.84012e+02
997	3.90803e+02	9.97000e+02	1.70707e+00	3.87762e+02
1002	3.94517e+02	1.00200e+03	1.51518e+00	3.91512e+02
1007	3.98482e+02	1.00700e+03	1.32019e+00	3.95262e+02
1012	4.02196e+02	1.01200e+03	1.12529e+00	3.99013e+02
1017	4.05992e+02	1.01700e+03	9.34531e-01	4.02763e+02
1022	4.09822e+02	1.02200e+03	7.49158e-01	4.06513e+02
1027	4.13728e+02	1.02700e+03	5.71910e-01	4.10263e+02
1032	4.17776e+02	1.03200e+03	4.13258e-01	4.14013e+02
1037	4.21543e+02	1.03700e+03	2.86555e-01	4.17763e+02
1042	4.25292e+02	1.04200e+03	1.91118e-01	4.21514e+02
1047	4.29018e+02	1.04700e+03	1.23499e-01	4.25264e+02
1052	4.32945e+02	1.05200e+03	7.73276e-02	4.29014e+02
1057	4.36723e+02	1.05700e+03	4.61365e-02	4.32764e+02
1062	4.40624e+02	1.06200e+03	2.59782e-02	4.36514e+02
1067	4.44671e+02	1.06700e+03	1.35423e-02	4.40264e+02
1072	4.48829e+02	1.07200e+03	6.31480e-03	4.44014e+02
1077	4.52550e+02	1.07700e+03	1.44916e-03	4.47765e+02
1082	4.56573e+02	1.08200e+03	-1.73257e-03	4.51515e+02
1087	4.60330e+02	1.08700e+03	-3.95223e-03	4.55265e+02
1092	4.63855e+02	1.09200e+03	-5.43915e-03	4.59015e+02
1097	4.67160e+02	1.09700e+03	-6.30374e-03	4.62765e+02
1102	4.70777e+02	1.10200e+03	-6.69948e-03	4.66515e+02
1107	4.74182e+02	1.10700e+03	-6.84345e-03	4.70266e+02
1112	4.77893e+02	1.11200e+03	-6.91864e-03	4.74016e+02
1117	4.81611e+02	1.11700e+03	-6.99171e-03	4.77766e+02
1122	4.85052e+02	1.12200e+03	-7.12886e-03	4.81516e+02
1127	4.88655e+02	1.12700e+03	-7.33084e-03	4.85266e+02
1132	4.92370e+02	1.13200e+03	-7.63923e-03	4.89016e+02
1137	4.96214e+02	1.13700e+03	-7.76191e-03	4.92766e+02
1142	4.99771e+02	1.14200e+03	-7.62515e-03	4.96517e+02
1147	5.03484e+02	1.14700e+03	-7.54693e-03	5.00267e+02
1152	5.07257e+02	1.15200e+03	-7.65013e-03	5.04017e+02
1157	5.10996e+02	1.15700e+03	-7.49454e-03	5.07767e+02
1162	5.14841e+02	1.16200e+03	-7.45072e-03	5.11517e+02
1167	5.18994e+02	1.16700e+03	-7.80569e-03	5.15267e+02
1172	5.21933e+02	1.17200e+03	-8.11575e-03	5.19018e+02
1177	5.25304e+02	1.17700e+03	-8.24119e-03	5.22768e+02
1182	5.28878e+02	1.18200e+03	-8.21656e-03	5.26518e+02
1187	5.32428e+02	1.18700e+03	-8.17397e-03	5.30268e+02
1192	5.36036e+02	1.19200e+03	-8.31195e-03	5.34018e+02
1197	5.39677e+02	1.19700e+03	-8.02809e-03	5.37768e+02
1202	5.43297e+02	1.20200e+03	-8.15686e-03	5.41518e+02
1207	5.46936e+02	1.20700e+03	-8.14786e-03	5.45269e+02
1212	5.50708e+02	1.21200e+03	-7.93884e-03	5.49019e+02
1217	5.54684e+02	1.21700e+03	-8.07167e-03	5.52769e+02
1222	5.57875e+02	1.22200e+03	-8.47061e-03	5.56519e+02
1227	5.61393e+02	1.22700e+03	-8.55575e-03	5.60269e+02
1232	5.64968e+02	1.23200e+03	-8.26346e-03	5.64019e+02
1237	5.68527e+02	1.23700e+03	-8.05638e-03	5.67770e+02
1242	5.72145e+02	1.24200e+03	-8.22528e-03	5.71520e+02
1247	5.76079e+02	1.24700e+03	-8.55178e-03	5.75270e+02
1252	5.79885e+02	1.25200e+03	-8.52409e-03	5.79020e+02
1257	5.83544e+02	1.25700e+03	-8.34790e-03	5.82770e+02
1262	5.87431e+02	1.26200e+03	-8.37655e-03	5.86520e+02
1267	5.91576e+02	1.26700e+03	-8.01588e-03	5.90270e+02
1272	5.96284e+02	1.27200e+03	-7.87661e-03	5.94021e+02
1277	5.99708e+02	1.27700e+03	-8.34912e-03	5.97771e+02
1282	6.03354e+02	1.28200e+03	-8.97949e-03	6.01521e+02
1287	6.06966e+02	1.28700e+03	-9.24493e-03	6.05271e+02
1292	6.10881e+02	1.29200e+03	-8.15421e-03	6.09021e+02
1297	6.15396e+02	1.29700e+03	-7.80723e-03	6.12771e+02
1302	6.17713e+02	1.30200e+03	-8.22640e-03	6.16522e+02
1307	6.21162e+02	1.30700e+03	-7.98615e-03	6.20272e+02
1312	6.24704e+02	1.31200e+03	-8.15112e-03	6.24022e+02
1317	6.28306e+02	1.31700e+03	-8.41692e-03	6.27772e+02
1322	6.31955e+02	1.32200e+03	-8.52078e-03	6.31522e+02
1327	6.35569e+02	1.32700e+03	-8.58821e-03	6.35272e+02
1332	6.39164e+02	1.33200e+03	-9.05694e-03	6.39022e+02
1337	6.42803e+02	1.33700e+03	-9.31048e-03	6.42773e+02
1342	6.46495e+02	1.34200e+03	-8.60712e-03	6.46523e+02
1347	6.50177e+02	1.34700e+03	-8.20220e-03	6.50273e+02
1352	6.53911e+02	1.35200e+03	-8.89846e-03	6.54023e+02
1357	6.57712e+02	1.35700e+03	-9.12466e-03	6.57773e+02
1362	6.61420e+02	1.36200e+03	-8.65613e-03	6.61523e+02
1367	6.65119e+02	1.36700e+03	-8.62195e-03	6.65274e+02
1372	6.68790e+02	1.37200e+03	-8.86262e-03	6.69024e+02
1377	6.72491e+02	1.37700e+03	-8.95504e-03	6.72774e+02
1382	6.76188e+02	1.38200e+03	-8.86802e-03	6.76524e+02
1387	6.79908e+02	1.38700e+03	-8.74128e-03	6.80274e+02
1392	6.82016e+02	1.39200e+03	-8.78325e-03	6.84024e+02
1397	6.84554e+02	1.39700e+03	-8.84599e-03	6.87774e+02
1402	6.86743e+02	1.40200e+03	-8.97084e-03	6.91525e+02
1407	6.88620e+02	1.40700e+03	-8.64976e-03	6.95275e+02
1412	6.90202e+02	1.41200e+03	-8.60064e-03	6.99025e+02
1414	6.90774e+02	1.41400e+03	-8.63050e-03	7.00000e+02

File: tga_dynamic_n2_dyn45_powder_3mg_r1.txt
index	ts	t	weight	tr
[#]	[°C]	[s]	[mg]	[°C]
657	1.32638e+02	6.57000e+02	2.97862e+00	1.32752e+02
661	1.35742e+02	6.61000e+02	2.97847e+00	1.35752e+02
665	1.38862e+02	6.65000e+02	2.97801e+00	1.38752e+02
669	1.41961e+02	6.69000e+02	2.97752e+00	1.41752e+02
673	1.45033e+02	6.73000e+02	2.97700e+00	1.44752e+02
677	1.48172e+02	6.77000e+02	2.97621e+00	1.47752e+02
681	1.51265e+02	6.81000e+02	2.97542e+00	1.50752e+02
685	1.54356e+02	6.85000e+02	2.97474e+00	1.53753e+02
689	1.57445e+02	6.89000e+02	2.97399e+00	1.56753e+02
693	1.60530e+02	6.93000e+02	2.97309e+00	1.59753e+02
697	1.63581e+02	6.97000e+02	2.97190e+00	1.62753e+02
701	1.66654e+02	7.01000e+02	2.97037e+00	1.65753e+02
705	1.69725e+02	7.05000e+02	2.96866e+00	1.68753e+02
709	1.72811e+02	7.09000e+02	2.96681e+00	1.71753e+02
713	1.75894e+02	7.13000e+02	2.96488e+00	1.74753e+02
717	1.78961e+02	7.17000e+02	2.96255e+00	1.77754e+02
721	1.82049e+02	7.21000e+02	2.95944e+00	1.80754e+02
725	1.85114e+02	7.25000e+02	2.95537e+00	1.83754e+02
729	1.88183e+02	7.29000e+02	2.95013e+00	1.86754e+02
733	1.91264e+02	7.33000e+02	2.94389e+00	1.89754e+02
737	1.94336e+02	7.37000e+02	2.93700e+00	1.92754e+02
741	1.97406e+02	7.41000e+02	2.92934e+00	1.95754e+02
745	2.00477e+02	7.45000e+02	2.92102e+00	1.98754e+02
749	2.03555e+02	7.49000e+02	2.91206e+00	2.01755e+02
753	2.06632e+02	7.53000e+02	2.90302e+00	2.04755e+02
757	2.09723e+02	7.57000e+02	2.89485e+00	2.07755e+02
761	2.12802e+02	7.61000e+02	2.88785e+00	2.10755e+02
765	2.15903e+02	7.65000e+02	2.88217e+00	2.13755e+02
769	2.18971e+02	7.69000e+02	2.87798e+00	2.16755e+02
773	2.22036e+02	7.73000e+02	2.87475e+00	2.19755e+02
777	2.25123e+02	7.77000e+02	2.87177e+00	2.22755e+02
781	2.28189e+02	7.81000e+02	2.86904e+00	2.25756e+02
785	2.31261e+02	7.85000e+02	2.86674e+00	2.28756e+02
789	2.34352e+02	7.89000e+02	2.86461e+00	2.31756e+02
793	2.37372e+02	7.93000e+02	2.86238e+00	2.34756e+02
797	2.40429e+02	7.97000e+02	2.86011e+00	2.37756e+02
801	2.43518e+02	8.01000e+02	2.85806e+00	2.40756e+02
805	2.46600e+02	8.05000e+02	2.85610e+00	2.43756e+02
809	2.49685e+02	8.09000e+02	2.85402e+00	2.46756e+02
813	2.52768e+02	8.13000e+02	2.85185e+00	2.49757e+02
817	2.55820e+02	8.17000e+02	2.84970e+00	2.52757e+02
821	2.58889e+02	8.21000e+02	2.84780e+00	2.55757e+02
825	2.61982e+02	8.25000e+02	2.84617e+00	2.58757e+02
829	2.65085e+02	8.29000e+02	2.84475e+00	2.61757e+02
833	2.68195e+02	8.33000e+02	2.84338e+00	2.64757e+02
837	2.71274e+02	8.37000e+02	2.84143e+00	2.67757e+02
841	2.74365e+02	8.41000e+02	2.83906e+00	2.70757e+02
845	2.77435e+02	8.45000e+02	2.83708e+00	2.73758e+02
849	2.80547e+02	8.49000e+02	2.83544e+00	2.76758e+02
853	2.83674e+02	8.53000e+02	2.83357e+00	2.79758e+02
857	2.86746e+02	8.57000e+02	2.83090e+00	2.82758e+02
861	2.89802e+02	8.61000e+02	2.82750e+00	2.85758e+02
865	2.92864e+02	8.65000e+02	2.82352e+00	2.88758e+02
869	2.95931e+02	8.69000e+02	2.81870e+00	2.91758e+02
873	2.98987e+02	8.73000e+02	2.81318e+00	2.94758e+02
877	3.02037e+02	8.77000e+02	2.80690e+00	2.97759e+02
881	3.05062e+02	8.81000e+02	2.79984e+00	3.00759e+02
885	3.08074e+02	8.85000e+02	2.79158e+00	3.03759e+02
889	3.11071e+02	8.89000e+02	2.78174e+00	3.06759e+02
893	3.14048e+02	8.93000e+02	2.77077e+00	3.09759e+02
897	3.16949e+02	8.97000e+02	2.75875e+00	3.12759e+02
901	3.19855e+02	9.01000e+02	2.74574e+00	3.15759e+02
905	3.22795e+02	9.05000e+02	2.73230e+00	3.18759e+02
909	3.25763e+02	9.09000e+02	2.71846e+00	3.21759e+02
913	3.28769e+02	9.13000e+02	2.70426e+00	3.24760e+02
917	3.31789e+02	9.17000e+02	2.68907e+00	3.27760e+02
921	3.34813e+02	9.21000e+02	2.67250e+00	3.30760e+02
925	3.37905e+02	9.25000e+02	2.65395e+00	3.33760e+02
929	3.40932e+02	9.29000e+02	2.63225e+00	3.36760e+02
933	3.43975e+02	9.33000e+02	2.60710e+00	3.39760e+02
937	3.47009e+02	9.37000e+02	2.57807e+00	3.42760e+02
941	3.50049e+02	9.41000e+02	2.54369e+00	3.45760e+02
945	3.53016e+02	9.45000e+02	2.50321e+00	3.48761e+02
949	3.55996e+02	9.49000e+02	2.45618e+00	3.51761e+02
953	3.59002e+02	9.53000e+02	2.40212e+00	3.54761e+02
957	3.62024e+02	9.57000e+02	2.33996e+00	3.57761e+02
961	3.64988e+02	9.61000e+02	2.26852e+00	3.60761e+02
965	3.67934e+02	9.65000e+02	2.18788e+00	3.63761e+02
969	3.70915e+02	9.69000e+02	2.09925e+00	3.66761e+02
973	3.73845e+02	9.73000e+02	2.00347e+00	3.69761e+02
977	3.76808e+02	9.77000e+02	1.90077e+00	3.72762e+02
981	3.79767e+02	9.81000e+02	1.79146e+00	3.75762e+02
985	3.82720e+02	9.85000e+02	1.67531e+00	3.78762e+02
989	3.85687e+02	9.89000e+02	1.55323e+00	3.81762e+02
993	3.88644e+02	9.93000e+02	1.42648e+00	3.84762e+02
997	3.91595e+02	9.97000e+02	1.29743e+00	3.87762e+02
1001	3.94572e+02	1.00100e+03	1.16807e+00	3.90762e+02
1005	3.97540e+02	1.00500e+03	1.03993e+00	3.93762e+02
1009	4.00536e+02	1.00900e+03	9.14020e-01	3.96763e+02
1013	4.03540e+02	1.01300e+03	7.90926e-01	3.99763e+02
1017	4.06542e+02	1.01700e+03	6.71551e-01	4.02763e+02
1021	4.09587e+02	1.02100e+03	5.58661e-01	4.05763e+02
1025	4.12614e+02	1.02500e+03	4.55356e-01	4.08763e+02
1029	4.15668e+02	1.02900e+03	3.63720e-01	4.11763e+02
1033	4.18716e+02	1.03300e+03	2.85600e-01	4.14763e+02
1037	4.21784e+02	1.03700e+03	2.21871e-01	4.17763e+02
1041	4.24830e+02	1.04100e+03	1.68540e-01	4.20764e+02
1045	4.27830e+02	1.04500e+03	1.25278e-01	4.23764e+02
1049	4.30811e+02	1.04900e+03	9.13856e-02	4.26764e+02
1053	4.33800e+02	1.05300e+03	6.61726e-02	4.29764e+02
1057	4.36763e+02	1.05700e+03	4.85165e-02	4.32764e+02
1061	4.39746e+02	1.06100e+03	3.60446e-02	4.35764e+02
1065	4.42716e+02	1.06500e+03	2.74060e-02	4.38764e+02
1069	4.45652e+02	1.06900e+03	2.18509e-02	4.41764e+02
1073	4.48589e+02	1.07300e+03	1.76766e-02	4.44765e+02
1077	4.51505e+02	1.07700e+03	1.44121e-02	4.47765e+02
1081	4.54456e+02	1.08100e+03	1.23055e-02	4.50765e+02
1085	4.57414e+02	1.08500e+03	1.02955e-02	4.53765e+02
1089	4.60343e+02	1.08900e+03	8.88236e-03	4.56765e+02
1093	4.63304e+02	1.09300e+03	8.73901e-03	4.59765e+02
1097	4.66259e+02	1.09700e+03	9.14974e-03	4.62765e+02
1101	4.69201e+02	1.10100e+03	8.98741e-03	4.65765e+02
1105	4.72160e+02	1.10500e+03	7.92050e-03	4.68766e+02
1109	4.75037e+02	1.10900e+03	7.44405e-03	4.71766e+02
1113	4.77939e+02	1.11300e+03	7.62622e-03	4.74766e+02
1117	4.80856e+02	1.11700e+03	7.62921e-03	4.77766e+02
1121	4.83763e+02	1.12100e+03	7.57237e-03	4.80766e+02
1125	4.86664e+02	1.12500e+03	7.36841e-03	4.83766e+02
1129	4.89594e+02	1.12900e+03	7.03749e-03	4.86766e+02
1133	4.92492e+02	1.13300e+03	6.76844e-03	4.89766e+02
1137	4.95395e+02	1.13700e+03	6.62000e-03	4.92766e+02
1141	4.98304e+02	1.14100e+03	6.64458e-03	4.95767e+02
1145	5.01209e+02	1.14500e+03	6.64209e-03	4.98767e+02
1149	5.04131e+02	1.14900e+03	6.58045e-03	5.01767e+02
1153	5.07053e+02	1.15300e+03	6.62983e-03	5.04767e+02
1157	5.09976e+02	1.15700e+03	6.55578e-03	5.07767e+02
1161	5.12902e+02	1.16100e+03	6.22314e-03	5.10767e+02
1165	5.15828e+02	1.16500e+03	5.90524e-03	5.13767e+02
1169	5.18775e+02	1.16900e+03	5.81378e-03	5.16767e+02
1173	5.21736e+02	1.17300e+03	5.82122e-03	5.19768e+02
1177	5.24684e+02	1.17700e+03	5.79451e-03	5.22768e+02
1181	5.27670e+02	1.18100e+03	5.86361e-03	5.25768e+02
1185	5.30667e+02	1.18500e+03	5.95126e-03	5.28768e+02
1189	5.33643e+02	1.18900e+03	5.97619e-03	5.31768e+02
1193	5.36571e+02	1.19300e+03	5.90709e-03	5.34768e+02
1197	5.39265e+02	1.19700e+03	5.32801e-03	5.37768e+02
1201	5.43230e+02	1.20100e+03	4.91087e-03	5.40768e+02
1205	5.46057e+02	1.20500e+03	5.35291e-03	5.43769e+02
1209	5.48970e+02	1.20900e+03	5.48593e-03	5.46769e+02
1213	5.51839e+02	1.21300e+03	4.74066e-03	5.49769e+02
1217	5.54755e+02	1.21700e+03	3.61701e-03	5.52769e+02
1221	5.57745e+02	1.22100e+03	3.16091e-03	5.55769e+02
1225	5.60732e+02	1.22500e+03	3.81458e-03	5.58769e+02
1229	5.63673e+02	1.22900e+03	4.41615e-03	5.61769e+02
1233	5.66673e+02	1.23300e+03	4.21726e-03	5.64769e+02
1237	5.69591e+02	1.23700e+03	3.92564e-03	5.67770e+02
1241	5.72589e+02	1.24100e+03	3.87845e-03	5.70770e+02
1245	5.75794e+02	1.24500e+03	4.03033e-03	5.73770e+02
1249	5.78953e+02	1.24900e+03	4.09205e-03	5.76770e+02
1253	5.82046e+02	1.25300e+03	4.04662e-03	5.79770e+02
1257	5.85110e+02	1.25700e+03	3.77374e-03	5.82770e+02
1261	5.89082e+02	1.26100e+03	3.36836e-03	5.85770e+02
1265	5.91787e+02	1.26500e+03	2.90349e-03	5.88770e+02
1269	5.94693e+02	1.26900e+03	2.76615e-03	5.91771e+02
1273	5.97603e+02	1.27300e+03	2.82361e-03	5.94771e+02
1277	6.00495e+02	1.27700e+03	2.83622e-03	5.97771e+02
1281	6.03378e+02	1.28100e+03	2.65496e-03	6.00771e+02
1285	6.06290e+02	1.28500e+03	2.59164e-03	6.03771e+02
1289	6.09182e+02	1.28900e+03	2.83173e-03	6.06771e+02
1293	6.11943e+02	1.29300e+03	2.85312e-03	6.09771e+02
1297	6.14821e+02	1.29700e+03	2.84705e-03	6.12771e+02
1301	6.17768e+02	1.30100e+03	2.98456e-03	6.15772e+02
1305	6.20627e+02	1.30500e+03	2.81794e-03	6.18772e+02
1309	6.23534e+02	1.30900e+03	2.55379e-03	6.21772e+02
1313	6.26379e+02	1.31300e+03	2.57959e-03	6.24772e+02
1317	6.29226e+02	1.31700e+03	2.64713e-03	6.27772e+02
1321	6.32096e+02	1.32100e+03	2.61444e-03	6.30772e+02
1325	6.34940e+02	1.32500e+03	2.64218e-03	6.33772e+02
1329	6.37801e+02	1.32900e+03	2.69951e-03	6.36772e+02
1333	6.40660e+02	1.33300e+03	2.69274e-03	6.39773e+02
1337	6.43628e+02	1.33700e+03	2.54995e-03	6.42773e+02
1341	6.46660e+02	1.34100e+03	2.41139e-03	6.45773e+02
1345	6.49697e+02	1.34500e+03	2.42568e-03	6.48773e+02
1349	6.52691e+02	1.34900e+03	2.52679e-03	6.51773e+02
1353	6.55844e+02	1.35300e+03	2.66199e-03	6.54773e+02
1357	6.58840e+02	1.35700e+03	2.69422e-03	6.57773e+02
1361	6.61825e+02	1.36100e+03	2.57289e-03	6.60773e+02
1365	6.64891e+02	1.36500e+03	2.44978e-03	6.63773e+02
1369	6.67920e+02	1.36900e+03	2.38708e-03	6.66774e+02
1373	6.70963e+02	1.37300e+03	2.34411e-03	6.69774e+02
1377	6.74088e+02	1.37700e+03	2.34226e-03	6.72774e+02
1381	6.77030e+02	1.38100e+03	2.33082e-03	6.75774e+02
1385	6.79862e+02	1.38500e+03	2.22647e-03	6.78774e+02
1389	6.81970e+02	1.38900e+03	2.34348e-03	6.81774e+02
1393	6.83989e+02	1.39300e+03	2.61016e-03	6.84774e+02
1397	6.85797e+02	1.39700e+03	2.66993e-03	6.87774e+02
1401	6.87524e+02	1.40100e+03	2.61798e-03	6.90775e+02
1405	6.89320e+02	1.40500e+03	2.58606e-03	6.93775e+02
1409	6.90880e+02	1.40900e+03	2.57361e-03	6.96775e+02
1413	6.92133e+02	1.41300e+03	2.63858e-03	6.99775e+02
1414	6.92418e+02	1.41400e+03	2.67159e-03	7.00000e+02