Folder: Pyrolysis_BESKID/Experiments/TUBS/tga_nonisotherm (part 58)

File: tga_dynamic_n2low30_dyn30_piece_3mg_r2.txt
Index	Ts	t	Weight	Tr
[#]	[°C]	[s]	[mg]	[°C]
681	1.30010e+02	6.81000e+02	3.02538	130.5
691	1.35059e+02	6.91000e+02	3.02492	135.5
701	1.40078e+02	7.01000e+02	3.02492	140.5
711	1.45083e+02	7.11000e+02	3.02477	145.5
721	1.50119e+02	7.21000e+02	3.02443	150.5
731	1.55117e+02	7.31000e+02	3.02403	155.5
741	1.60156e+02	7.41000e+02	3.02394	160.5
751	1.65204e+02	7.51000e+02	3.02344	165.5
761	1.70259e+02	7.61000e+02	3.02318	170.5
771	1.75294e+02	7.71000e+02	3.0226	175.5
781	1.80350e+02	7.81000e+02	3.02213	180.5
791	1.85383e+02	7.91000e+02	3.02139	185.5
801	1.90440e+02	8.01000e+02	3.01996	190.5
811	1.95504e+02	8.11000e+02	3.01809	195.5
821	2.00583e+02	8.21000e+02	3.01549	200.5
831	2.05703e+02	8.31000e+02	3.01224	205.5
841	2.11025e+02	8.41000e+02	3.00857	210.5
851	2.16131e+02	8.51000e+02	3.00422	215.5
861	2.21288e+02	8.61000e+02	3.00002	220.5
871	2.26582e+02	8.71000e+02	2.99587	225.5
881	2.31800e+02	8.81000e+02	2.99156	230.5
891	2.36836e+02	8.91000e+02	2.98699	235.5
901	2.41938e+02	9.01000e+02	2.98215	240.5
911	2.46948e+02	9.11000e+02	2.97708	245.5
921	2.51904e+02	9.21000e+02	2.97192	250.5
931	2.56924e+02	9.31000e+02	2.96686	255.5
941	2.62071e+02	9.41000e+02	2.96151	260.5
951	2.67193e+02	9.51000e+02	2.95598	265.5
961	2.72418e+02	9.61000e+02	2.9504	270.5
971	2.77559e+02	9.71000e+02	2.9447	275.5
981	2.82720e+02	9.81000e+02	2.93878	280.5
991	2.87885e+02	9.91000e+02	2.93253	285.5
1001	2.93149e+02	1.00100e+03	2.92535	290.5
1011	2.98356e+02	1.01100e+03	2.91725	295.5
1021	3.03216e+02	1.02100e+03	2.90807	300.5
1031	3.08105e+02	1.03100e+03	2.89683	305.5
1041	3.13038e+02	1.04100e+03	2.88359	310.5
1051	3.18059e+02	1.05100e+03	2.86868	315.5
1061	3.23037e+02	1.06100e+03	2.85258	320.5
1071	3.28136e+02	1.07100e+03	2.8358	325.5
1081	3.33239e+02	1.08100e+03	2.81751	330.5
1091	3.38422e+02	1.09100e+03	2.79563	335.5
1101	3.43582e+02	1.10100e+03	2.76857	340.5
1111	3.48800e+02	1.11100e+03	2.73229	345.5
1121	3.53846e+02	1.12100e+03	2.68158	350.5
1131	3.58864e+02	1.13100e+03	2.61006	355.5
1141	3.63928e+02	1.14100e+03	2.50487	360.5
1151	3.68777e+02	1.15100e+03	2.36594	365.5
1161	3.73815e+02	1.16100e+03	2.18627	370.5
1171	3.78904e+02	1.17100e+03	1.96804	375.5
1181	3.83737e+02	1.18100e+03	1.72075	380.5
1191	3.88621e+02	1.19100e+03	1.46076	385.5
1201	3.93652e+02	1.20100e+03	1.19916	390.5
1211	3.98640e+02	1.21100e+03	0.938605	395.5
1221	4.03694e+02	1.22100e+03	0.677397	400.5
1231	4.08910e+02	1.23100e+03	0.44592	405.5
1241	4.14057e+02	1.24100e+03	0.27597	410.5
1251	4.19211e+02	1.25100e+03	0.16335	415.5
1261	4.24318e+02	1.26100e+03	0.0958775	420.5
1271	4.29610e+02	1.27100e+03	0.0573442	425.5
1281	4.34433e+02	1.28100e+03	0.037018	430.5
1291	4.39160e+02	1.29100e+03	0.0256568	435.5
1301	4.44158e+02	1.30100e+03	0.0194282	440.5
1311	4.48932e+02	1.31100e+03	0.0154017	445.5
1321	4.53783e+02	1.32100e+03	0.0128158	450.5
1331	4.58704e+02	1.33100e+03	0.0113109	455.5
1341	4.63577e+02	1.34100e+03	0.0108534	460.5
1351	4.68475e+02	1.35100e+03	0.0106547	465.5
1361	4.73617e+02	1.36100e+03	0.0103497	470.5
1371	4.78465e+02	1.37100e+03	0.0100764	475.5
1381	4.83503e+02	1.38100e+03	0.010025	480.5
1391	4.88423e+02	1.39100e+03	0.00980032	485.5
1401	4.93315e+02	1.40100e+03	0.00964531	490.5
1411	4.98105e+02	1.41100e+03	0.00949786	495.5
1421	5.03054e+02	1.42100e+03	0.00937928	500.5
1431	5.07874e+02	1.43100e+03	0.0090613	505.5
1441	5.12637e+02	1.44100e+03	0.00907019	510.5
1451	5.17466e+02	1.45100e+03	0.0091404	515.5
1461	5.22265e+02	1.46100e+03	0.00899837	520.5
1471	5.27057e+02	1.47100e+03	0.00887512	525.5
1481	5.31895e+02	1.48100e+03	0.00910266	530.5
1491	5.36726e+02	1.49100e+03	0.00894702	535.5
1501	5.41606e+02	1.50100e+03	0.00858646	540.5
1511	5.46470e+02	1.51100e+03	0.00899195	545.5
1521	5.51271e+02	1.52100e+03	0.00890941	550.5
1531	5.56113e+02	1.53100e+03	0.00874906	555.5
1541	5.60936e+02	1.54100e+03	0.00880913	560.5
1551	5.65857e+02	1.55100e+03	0.00872991	565.5
1561	5.70708e+02	1.56100e+03	0.00867809	570.5
1571	5.75564e+02	1.57100e+03	0.00869188	575.5
1581	5.80474e+02	1.58100e+03	0.00862149	580.5
1591	5.85420e+02	1.59100e+03	0.00862952	585.5
1601	5.90397e+02	1.60100e+03	0.00833094	590.5
1611	5.95317e+02	1.61100e+03	0.00833513	595.5
1621	6.00358e+02	1.62100e+03	0.00851037	600.5
1631	6.05392e+02	1.63100e+03	0.00836802	605.5
1641	6.10402e+02	1.64100e+03	0.00829114	610.5
1651	6.15389e+02	1.65100e+03	0.00824188	615.5
1661	6.20416e+02	1.66100e+03	0.00840406	620.5
1671	6.25505e+02	1.67100e+03	0.00827799	625.5
1681	6.30644e+02	1.68100e+03	0.00834915	630.5
1691	6.35840e+02	1.69100e+03	0.00851503	635.5
1701	6.41013e+02	1.70100e+03	0.00832155	640.5
1711	6.46261e+02	1.71100e+03	0.00817843	645.5
1721	6.52889e+02	1.72100e+03	0.00814382	650.5
1731	6.57670e+02	1.73100e+03	0.00813666	655.5
1741	6.62492e+02	1.74100e+03	0.00812938	660.5
1751	6.67397e+02	1.75100e+03	0.00819397	665.5
1761	6.72285e+02	1.76100e+03	0.00809681	670.5
1771	6.77183e+02	1.77100e+03	0.00809038	675.5
1781	6.82082e+02	1.78100e+03	0.00802585	680.5
1791	6.86960e+02	1.79100e+03	0.00790673	685.5
1801	6.90582e+02	1.80100e+03	0.00802108	690.5
1811	6.93499e+02	1.81100e+03	0.00800937	695.5
1821	6.95782e+02	1.82100e+03	0.00802292	700.0
1831	6.97600e+02	1.83100e+03	0.00785427	700.0
1841	6.99062e+02	1.84100e+03	0.00784932	700.0
1851	6.99231e+02	1.85100e+03	0.00801767	700.0
1861	6.99600e+02	1.86100e+03	0.00793237	700.0
1871	6.99946e+02	1.87100e+03	0.007879	700.0
1881	7.00227e+02	1.88100e+03	0.00796896	700.0
1891	7.00448e+02	1.89100e+03	0.00788803	700.0
1901	7.00638e+02	1.90100e+03	0.00778445	700.0
1911	7.00803e+02	1.91100e+03	0.00774395	700.0
1921	7.00937e+02	1.92100e+03	0.00773169	700.0
1931	7.01024e+02	1.93100e+03	0.0079025	700.0
1941	7.01085e+02	1.94100e+03	0.00797405	700.0
1951	7.01143e+02	1.95100e+03	0.0078669	700.0
1961	7.01182e+02	1.96100e+03	0.00793677	700.0
1971	7.01216e+02	1.97100e+03	0.00786277	700.0
1981	7.01245e+02	1.98100e+03	0.00782833	700.0
1991	7.01247e+02	1.99100e+03	0.0078235	700.0
2001	7.01241e+02	2.00100e+03	0.00777103	700.0
2011	7.01240e+02	2.01100e+03	0.00787392	700.0
2021	7.01172e+02	2.02100e+03	0.00778459	700.0
2031	7.01142e+02	2.03100e+03	0.00778293	700.0
2041	7.01113e+02	2.04100e+03	0.00776506	700.0
2051	7.01090e+02	2.05100e+03	0.00788321	700.0
2061	7.01052e+02	2.06100e+03	0.00791607	700.0
2071	7.01038e+02	2.07100e+03	0.0078009	700.0
2081	7.01006e+02	2.08100e+03	0.0076073	700.0
2091	7.01002e+02	2.09100e+03	0.00772546	700.0
2101	7.00981e+02	2.10100e+03	0.00773702	700.0
2111	7.00954e+02	2.11100e+03	0.00771268	700.0
2121	7.00952e+02	2.12100e+03	0.00756479	700.0
2131	7.00933e+02	2.13100e+03	0.00767658	700.0
2141	7.00929e+02	2.14100e+03	0.00776149	700.0
2151	7.00907e+02	2.15100e+03	0.00771471	700.0
2161	7.00893e+02	2.16100e+03	0.00773115	700.0
2171	7.00881e+02	2.17100e+03	0.00768286	700.0
2181	7.00865e+02	2.18100e+03	0.00758585	700.0
2191	7.00858e+02	2.19100e+03	0.00760411	700.0
2201	7.00858e+02	2.20100e+03	0.00764405	700.0
2211	7.00840e+02	2.21100e+03	0.00758376	700.0
2221	7.00844e+02	2.22100e+03	0.00762229	700.0
2231	7.00821e+02	2.23100e+03	0.0075373	700.0
2241	7.00827e+02	2.24100e+03	0.00759425	700.0
2251	7.00801e+02	2.25100e+03	0.00778028	700.0
2261	7.00802e+02	2.26100e+03	0.0075485	700.0
2271	7.00797e+02	2.27100e+03	0.00731257	700.0
2281	7.00782e+02	2.28100e+03	0.00803092	700.0
2291	7.00780e+02	2.29100e+03	0.007815	700.0
2301	7.00788e+02	2.30100e+03	0.00762261	700.0
2311	7.00780e+02	2.31100e+03	0.00760031	700.0
2321	7.00776e+02	2.32100e+03	0.00753385	700.0
2331	7.00777e+02	2.33100e+03	0.0075204	700.0
2341	7.00780e+02	2.34100e+03	0.0075964	700.0
2351	7.00782e+02	2.35100e+03	0.00758788	700.0
2361	7.00780e+02	2.36100e+03	0.00757893	700.0
2371	7.00777e+02	2.37100e+03	0.00750121	700.0
2381	7.00786e+02	2.38100e+03	0.00742514	700.0
2391	7.00782e+02	2.39100e+03	0.00738269	700.0
2401	7.00773e+02	2.40100e+03	0.00751737	700.0
2411	7.00779e+02	2.41100e+03	0.00750279	700.0
2421	7.00771e+02	2.42100e+03	0.0074155	700.0
2431	7.00776e+02	2.43100e+03	0.00729817	700.0
2441	7.00783e+02	2.44100e+03	0.00728617	700.0
2451	7.00770e+02	2.45100e+03	0.00723863	700.0
2461	7.00772e+02	2.46100e+03	0.00727293	700.0
2471	7.00781e+02	2.47100e+03	0.00715882	700.0
2481	7.00778e+02	2.48100e+03	0.00721313	700.0
2491	7.00781e+02	2.49100e+03	0.00720067	700.0
2501	7.00784e+02	2.50100e+03	0.00716913	700.0
2511	7.00785e+02	2.51100e+03	0.00719782	700.0
2521	7.00783e+02	2.52100e+03	0.0072031	700.0
2531	7.00794e+02	2.53100e+03	0.00729229	700.0
2541	7.00791e+02	2.54100e+03	0.00708895	700.0
2551	7.00796e+02	2.55100e+03	0.00725857	700.0
2561	7.00797e+02	2.56100e+03	0.00723537	700.0
2571	7.00792e+02	2.57100e+03	0.00723364	700.0
2581	7.00798e+02	2.58100e+03	0.00703283	700.0
2591	7.00797e+02	2.59100e+03	0.00694677	700.0
2601	7.00790e+02	2.60100e+03	0.00691096	700.0
2611	7.00797e+02	2.61100e+03	0.00698261	700.0
2621	7.00805e+02	2.62100e+03	0.00698967	700.0
2631	7.00802e+02	2.63100e+03	0.00679635	700.0
2641	7.00810e+02	2.64100e+03	0.00701253	700.0
2651	7.00822e+02	2.65100e+03	0.00682764	700.0
2661	7.00818e+02	2.66100e+03	0.00694285	700.0
2671	7.00821e+02	2.67100e+03	0.00698242	700.0
2681	7.00822e+02	2.68100e+03	0.00686904	700.0
2691	7.00826e+02	2.69100e+03	0.0068409	700.0
2701	7.00831e+02	2.70100e+03	0.00687694	700.0
2711	7.00828e+02	2.71100e+03	0.00687862	700.0
2720	7.00830e+02	2.72000e+03	0.0067483	700.0

File: tga_dynamic_n2low30_dyn30_powder_3mg_r2.txt
Index	Ts	t	Weight	Tr
[#]	[°C]	[s]	[mg]	[°C]
681	1.30360e+02	6.81000e+02	2.94763	130.5
691	1.35397e+02	6.91000e+02	2.94706	135.5
701	1.40435e+02	7.01000e+02	2.94629	140.5
711	1.45473e+02	7.11000e+02	2.94533	145.5
721	1.50510e+02	7.21000e+02	2.94387	150.5
731	1.55553e+02	7.31000e+02	2.94189	155.5
741	1.60626e+02	7.41000e+02	2.93971	160.5
751	1.65684e+02	7.51000e+02	2.93721	165.5
761	1.70769e+02	7.61000e+02	2.93418	170.5
771	1.75836e+02	7.71000e+02	2.93035	175.5
781	1.80921e+02	7.81000e+02	2.92532	180.5
791	1.85983e+02	7.91000e+02	2.91759	185.5
801	1.91064e+02	8.01000e+02	2.90559	190.5
811	1.96143e+02	8.11000e+02	2.89226	195.5
821	2.01224e+02	8.21000e+02	2.87819	200.5
831	2.06321e+02	8.31000e+02	2.86618	205.5
841	2.11405e+02	8.41000e+02	2.85769	210.5
851	2.16523e+02	8.51000e+02	2.85205	215.5
861	2.21610e+02	8.61000e+02	2.84812	220.5
871	2.26618e+02	8.71000e+02	2.84474	225.5
881	2.31661e+02	8.81000e+02	2.84108	230.5
891	2.36879e+02	8.91000e+02	2.83738	235.5
901	2.42089e+02	9.01000e+02	2.83361	240.5
911	2.47255e+02	9.11000e+02	2.83021	245.5
921	2.52436e+02	9.21000e+02	2.8272	250.5
931	2.57473e+02	9.31000e+02	2.82464	255.5
941	2.62583e+02	9.41000e+02	2.8222	260.5
951	2.67735e+02	9.51000e+02	2.81947	265.5
961	2.72831e+02	9.61000e+02	2.81668	270.5
971	2.77991e+02	9.71000e+02	2.8134	275.5
981	2.83164e+02	9.81000e+02	2.80914	280.5
991	2.88158e+02	9.91000e+02	2.8034	285.5
1001	2.93312e+02	1.00100e+03	2.79536	290.5
1011	2.98390e+02	1.01100e+03	2.78439	295.5
1021	3.03495e+02	1.02100e+03	2.77047	300.5
1031	3.08712e+02	1.03100e+03	2.75286	305.5
1041	3.14004e+02	1.04100e+03	2.73248	310.5
1051	3.19280e+02	1.05100e+03	2.71063	315.5
1061	3.24438e+02	1.06100e+03	2.68811	320.5
1071	3.29519e+02	1.07100e+03	2.6643	325.5
1081	3.34469e+02	1.08100e+03	2.63603	330.5
1091	3.39536e+02	1.09100e+03	2.59881	335.5
1101	3.44630e+02	1.10100e+03	2.54879	340.5
1111	3.49717e+02	1.11100e+03	2.48086	345.5
1121	3.54719e+02	1.12100e+03	2.39021	350.5
1131	3.59668e+02	1.13100e+03	2.27445	355.5
1141	3.64590e+02	1.14100e+03	2.1312	360.5
1151	3.69390e+02	1.15100e+03	1.96282	365.5
1161	3.74412e+02	1.16100e+03	1.76996	370.5
1171	3.79335e+02	1.17100e+03	1.55726	375.5
1181	3.84312e+02	1.18100e+03	1.32761	380.5
1191	3.89427e+02	1.19100e+03	1.0899	385.5
1201	3.94579e+02	1.20100e+03	0.859675	390.5
1211	3.99727e+02	1.21100e+03	0.646128	395.5
1221	4.04745e+02	1.22100e+03	0.463537	400.5
1231	4.09932e+02	1.23100e+03	0.317728	405.5
1241	4.14752e+02	1.24100e+03	0.210265	410.5
1251	4.19788e+02	1.25100e+03	0.134224	415.5
1261	4.25247e+02	1.26100e+03	0.0845357	420.5
1271	4.30003e+02	1.27100e+03	0.0538095	425.5
1281	4.34778e+02	1.28100e+03	0.0368375	430.5
1291	4.39746e+02	1.29100e+03	0.0273872	435.5
1301	4.45053e+02	1.30100e+03	0.0226443	440.5
1311	4.49960e+02	1.31100e+03	0.0198378	445.5
1321	4.54961e+02	1.32100e+03	0.0184134	450.5
1331	4.59880e+02	1.33100e+03	0.0175546	455.5
1341	4.64504e+02	1.34100e+03	0.0173429	460.5
1351	4.69267e+02	1.35100e+03	0.0171923	465.5
1361	4.74244e+02	1.36100e+03	0.0170975	470.5
1371	4.78914e+02	1.37100e+03	0.0168478	475.5
1381	4.83723e+02	1.38100e+03	0.0167312	480.5
1391	4.88720e+02	1.39100e+03	0.0164668	485.5
1401	4.93452e+02	1.40100e+03	0.0164414	490.5
1411	4.98257e+02	1.41100e+03	0.0165031	495.5
1421	5.03081e+02	1.42100e+03	0.0162842	500.5
1431	5.08086e+02	1.43100e+03	0.015984	505.5
1441	5.13342e+02	1.44100e+03	0.0161861	510.5
1451	5.18810e+02	1.45100e+03	0.0162044	515.5
1461	5.23531e+02	1.46100e+03	0.0160179	520.5
1471	5.28305e+02	1.47100e+03	0.0160428	525.5
1481	5.33270e+02	1.48100e+03	0.016051	530.5
1491	5.38108e+02	1.49100e+03	0.0159178	535.5
1501	5.43131e+02	1.50100e+03	0.0156607	540.5
1511	5.47863e+02	1.51100e+03	0.0160422	545.5
1521	5.52532e+02	1.52100e+03	0.0157929	550.5
1531	5.57545e+02	1.53100e+03	0.0157445	555.5
1541	5.62671e+02	1.54100e+03	0.0158852	560.5
1551	5.67431e+02	1.55100e+03	0.0158448	565.5
1561	5.72270e+02	1.56100e+03	0.015721	570.5
1571	5.77121e+02	1.57100e+03	0.0157243	575.5
1581	5.81994e+02	1.58100e+03	0.015659	580.5
1591	5.86876e+02	1.59100e+03	0.0155724	585.5
1601	5.91773e+02	1.60100e+03	0.0152941	590.5
1611	5.96708e+02	1.61100e+03	0.0153678	595.5
1621	6.01753e+02	1.62100e+03	0.0154949	600.5
1631	6.06554e+02	1.63100e+03	0.0155172	605.5
1641	6.11424e+02	1.64100e+03	0.0154703	610.5
1651	6.16378e+02	1.65100e+03	0.0153914	615.5
1661	6.21365e+02	1.66100e+03	0.0154676	620.5
1671	6.26325e+02	1.67100e+03	0.0154146	625.5
1681	6.31428e+02	1.68100e+03	0.0154964	630.5
1691	6.36928e+02	1.69100e+03	0.0157827	635.5
1701	6.41591e+02	1.70100e+03	0.0155426	640.5
1711	6.46360e+02	1.71100e+03	0.0154089	645.5
1721	6.51207e+02	1.72100e+03	0.0154007	650.5
1731	6.56080e+02	1.73100e+03	0.0154527	655.5
1741	6.60979e+02	1.74100e+03	0.0154789	660.5
1751	6.65852e+02	1.75100e+03	0.015508	665.5
1761	6.70738e+02	1.76100e+03	0.0155608	670.5
1771	6.75660e+02	1.77100e+03	0.0155473	675.5
1781	6.80604e+02	1.78100e+03	0.0154399	680.5
1791	6.85517e+02	1.79100e+03	0.0152239	685.5
1801	6.89073e+02	1.80100e+03	0.0155277	690.5
1811	6.91879e+02	1.81100e+03	0.0155149	695.5
1821	6.93942e+02	1.82100e+03	0.0155332	700.0
1831	6.95458e+02	1.83100e+03	0.015563	700.0
1841	6.96603e+02	1.84100e+03	0.0154718	700.0
1851	6.97488e+02	1.85100e+03	0.0156642	700.0
1861	6.98153e+02	1.86100e+03	0.0155264	700.0
1871	6.98675e+02	1.87100e+03	0.015462	700.0
1881	6.99070e+02	1.88100e+03	0.0155489	700.0
1891	6.99392e+02	1.89100e+03	0.0155815	700.0
1901	6.99635e+02	1.90100e+03	0.0154377	700.0
1911	6.99820e+02	1.91100e+03	0.015421	700.0
1921	6.99977e+02	1.92100e+03	0.0154174	700.0
1931	7.00079e+02	1.93100e+03	0.0155412	700.0
1941	7.00169e+02	1.94100e+03	0.0157876	700.0
1951	7.00238e+02	1.95100e+03	0.015656	700.0
1961	7.00290e+02	1.96100e+03	0.0154903	700.0
1971	7.00340e+02	1.97100e+03	0.0157392	700.0
1981	7.00374e+02	1.98100e+03	0.0156528	700.0
1991	7.00397e+02	1.99100e+03	0.0155729	700.0
2001	7.00415e+02	2.00100e+03	0.0155153	700.0
2011	7.00434e+02	2.01100e+03	0.0157143	700.0
2021	7.00450e+02	2.02100e+03	0.0157092	700.0
2031	7.00455e+02	2.03100e+03	0.0157726	700.0
2041	7.00465e+02	2.04100e+03	0.0157502	700.0
2051	7.00473e+02	2.05100e+03	0.0158363	700.0
2061	7.00469e+02	2.06100e+03	0.0158038	700.0
2071	7.00466e+02	2.07100e+03	0.0156231	700.0
2081	7.00469e+02	2.08100e+03	0.0155563	700.0
2091	7.00463e+02	2.09100e+03	0.0156553	700.0
2101	7.00448e+02	2.10100e+03	0.0157335	700.0
2111	7.00445e+02	2.11100e+03	0.0156694	700.0
2121	7.00438e+02	2.12100e+03	0.0155034	700.0
2131	7.00432e+02	2.13100e+03	0.0158897	700.0
2141	7.00419e+02	2.14100e+03	0.0156775	700.0
2151	7.00415e+02	2.15100e+03	0.0158368	700.0
2161	7.00394e+02	2.16100e+03	0.0156601	700.0
2171	7.00385e+02	2.17100e+03	0.0156479	700.0
2181	7.00379e+02	2.18100e+03	0.0157077	700.0
2191	7.00371e+02	2.19100e+03	0.0157568	700.0
2201	7.00364e+02	2.20100e+03	0.0158343	700.0
2211	7.00347e+02	2.21100e+03	0.0156879	700.0
2221	7.00336e+02	2.22100e+03	0.0155975	700.0
2231	7.00328e+02	2.23100e+03	0.015647	700.0
2241	7.00313e+02	2.24100e+03	0.0157623	700.0
2251	7.00296e+02	2.25100e+03	0.0160286	700.0
2261	7.00272e+02	2.26100e+03	0.0158833	700.0
2271	7.00241e+02	2.27100e+03	0.0155471	700.0
2281	7.00217e+02	2.28100e+03	0.0162231	700.0
2291	7.00195e+02	2.29100e+03	0.0159072	700.0
2301	7.00171e+02	2.30100e+03	0.0157838	700.0
2311	7.00153e+02	2.31100e+03	0.0158165	700.0
2321	7.00125e+02	2.32100e+03	0.0156351	700.0
2331	7.00115e+02	2.33100e+03	0.015816	700.0
2341	7.00098e+02	2.34100e+03	0.0159827	700.0
2351	7.00081e+02	2.35100e+03	0.0158679	700.0
2361	7.00075e+02	2.36100e+03	0.0157461	700.0
2371	7.00061e+02	2.37100e+03	0.015776	700.0
2381	7.00064e+02	2.38100e+03	0.0159395	700.0
2391	7.00053e+02	2.39100e+03	0.0157323	700.0
2401	7.00045e+02	2.40100e+03	0.0159823	700.0
2411	7.00035e+02	2.41100e+03	0.0159624	700.0
2421	7.00030e+02	2.42100e+03	0.0157456	700.0
2431	7.00019e+02	2.43100e+03	0.0156953	700.0
2441	7.00013e+02	2.44100e+03	0.015674	700.0
2451	7.00003e+02	2.45100e+03	0.0155819	700.0
2461	6.99997e+02	2.46100e+03	0.0155152	700.0
2471	6.99989e+02	2.47100e+03	0.0157432	700.0
2481	6.99980e+02	2.48100e+03	0.015812	700.0
2491	6.99974e+02	2.49100e+03	0.0157054	700.0
2501	6.99975e+02	2.50100e+03	0.0158325	700.0
2511	6.99960e+02	2.51100e+03	0.0159876	700.0
2521	6.99958e+02	2.52100e+03	0.0159455	700.0
2531	6.99943e+02	2.53100e+03	0.0157567	700.0
2541	6.99952e+02	2.54100e+03	0.0157075	700.0
2551	6.99951e+02	2.55100e+03	0.0158418	700.0
2561	6.99941e+02	2.56100e+03	0.0158738	700.0
2571	6.99939e+02	2.57100e+03	0.015876	700.0
2581	6.99955e+02	2.58100e+03	0.0157035	700.0
2591	6.99946e+02	2.59100e+03	0.0157767	700.0
2601	6.99948e+02	2.60100e+03	0.0157089	700.0
2611	6.99946e+02	2.61100e+03	0.0156543	700.0
2621	6.99938e+02	2.62100e+03	0.0157475	700.0
2631	6.99933e+02	2.63100e+03	0.0155962	700.0
2641	6.99932e+02	2.64100e+03	0.0156724	700.0
2651	6.99936e+02	2.65100e+03	0.0155764	700.0
2661	6.99926e+02	2.66100e+03	0.0156371	700.0
2671	6.99930e+02	2.67100e+03	0.0155552	700.0
2681	6.99930e+02	2.68100e+03	0.0155603	700.0
2691	6.99926e+02	2.69100e+03	0.0154893	700.0
2701	6.99936e+02	2.70100e+03	0.0156265	700.0
2711	6.99935e+02	2.71100e+03	0.0155737	700.0
2720	6.99931e+02	2.72000e+03	0.0154484	700.0