Folder: Pyrolysis_BESKID/Experiments/TUBS/tga_nonisotherm (part 44)

File: tga_dynamic_n2_dyn60_powder_3mg_r2.txt
index	ts	t	weight	tr
[#]	[°C]	[s]	[mg]	[°C]
643	1.30118e+02	6.43000e+02	3.01872e+00	1.33000e+02
646	1.33128e+02	6.46000e+02	3.01850e+00	1.36000e+02
649	1.36159e+02	6.49000e+02	3.01830e+00	1.39000e+02
652	1.39157e+02	6.52000e+02	3.01809e+00	1.42000e+02
655	1.42171e+02	6.55000e+02	3.01784e+00	1.45000e+02
658	1.45183e+02	6.58000e+02	3.01750e+00	1.48000e+02
661	1.48185e+02	6.61000e+02	3.01700e+00	1.51000e+02
664	1.51204e+02	6.64000e+02	3.01631e+00	1.54000e+02
667	1.54205e+02	6.67000e+02	3.01548e+00	1.57000e+02
670	1.57210e+02	6.70000e+02	3.01445e+00	1.60000e+02
673	1.60219e+02	6.73000e+02	3.01327e+00	1.63000e+02
676	1.63218e+02	6.76000e+02	3.01202e+00	1.66000e+02
679	1.66226e+02	6.79000e+02	3.01067e+00	1.69000e+02
682	1.69222e+02	6.82000e+02	3.00916e+00	1.72000e+02
685	1.72219e+02	6.85000e+02	3.00742e+00	1.75000e+02
688	1.75228e+02	6.88000e+02	3.00537e+00	1.78000e+02
691	1.78226e+02	6.91000e+02	3.00301e+00	1.81000e+02
694	1.81213e+02	6.94000e+02	3.00009e+00	1.84000e+02
697	1.84224e+02	6.97000e+02	2.99654e+00	1.87000e+02
700	1.87224e+02	7.00000e+02	2.99222e+00	1.90000e+02
703	1.90242e+02	7.03000e+02	2.98716e+00	1.93000e+02
706	1.93255e+02	7.06000e+02	2.98099e+00	1.96000e+02
709	1.96250e+02	7.09000e+02	2.97400e+00	1.99000e+02
712	1.99275e+02	7.12000e+02	2.96633e+00	2.02000e+02
715	2.02300e+02	7.15000e+02	2.95828e+00	2.05000e+02
718	2.05316e+02	7.18000e+02	2.94999e+00	2.08000e+02
721	2.08332e+02	7.21000e+02	2.94203e+00	2.11000e+02
724	2.11347e+02	7.24000e+02	2.93471e+00	2.14000e+02
727	2.14357e+02	7.27000e+02	2.92815e+00	2.17000e+02
730	2.17320e+02	7.30000e+02	2.92282e+00	2.20000e+02
733	2.20292e+02	7.33000e+02	2.91844e+00	2.23000e+02
736	2.23277e+02	7.36000e+02	2.91489e+00	2.26000e+02
739	2.26273e+02	7.39000e+02	2.91187e+00	2.29000e+02
742	2.29272e+02	7.42000e+02	2.90943e+00	2.32000e+02
745	2.32288e+02	7.45000e+02	2.90714e+00	2.35000e+02
748	2.35325e+02	7.48000e+02	2.90493e+00	2.38000e+02
751	2.38358e+02	7.51000e+02	2.90276e+00	2.41000e+02
754	2.41379e+02	7.54000e+02	2.90059e+00	2.44000e+02
757	2.44391e+02	7.57000e+02	2.89837e+00	2.47000e+02
760	2.47413e+02	7.60000e+02	2.89615e+00	2.50000e+02
763	2.50428e+02	7.63000e+02	2.89393e+00	2.53000e+02
766	2.53416e+02	7.66000e+02	2.89173e+00	2.56000e+02
769	2.56419e+02	7.69000e+02	2.88957e+00	2.59000e+02
772	2.59447e+02	7.72000e+02	2.88751e+00	2.62000e+02
775	2.62469e+02	7.75000e+02	2.88551e+00	2.65000e+02
778	2.65507e+02	7.78000e+02	2.88356e+00	2.68000e+02
781	2.68544e+02	7.81000e+02	2.88165e+00	2.71000e+02
784	2.71587e+02	7.84000e+02	2.87980e+00	2.74000e+02
787	2.74640e+02	7.87000e+02	2.87796e+00	2.77000e+02
790	2.77679e+02	7.90000e+02	2.87607e+00	2.80000e+02
793	2.80734e+02	7.93000e+02	2.87402e+00	2.83000e+02
796	2.83767e+02	7.96000e+02	2.87175e+00	2.86000e+02
799	2.86824e+02	7.99000e+02	2.86917e+00	2.89000e+02
802	2.89860e+02	8.02000e+02	2.86607e+00	2.92000e+02
805	2.92903e+02	8.05000e+02	2.86242e+00	2.95000e+02
808	2.95973e+02	8.08000e+02	2.85809e+00	2.98000e+02
811	2.99138e+02	8.11000e+02	2.85311e+00	3.01000e+02
814	3.02199e+02	8.14000e+02	2.84703e+00	3.04000e+02
817	3.05242e+02	8.17000e+02	2.83994e+00	3.07000e+02
820	3.08292e+02	8.20000e+02	2.83178e+00	3.10000e+02
823	3.11326e+02	8.23000e+02	2.82271e+00	3.13000e+02
826	3.14365e+02	8.26000e+02	2.81236e+00	3.16000e+02
829	3.17400e+02	8.29000e+02	2.80117e+00	3.19000e+02
832	3.20402e+02	8.32000e+02	2.78932e+00	3.22000e+02
835	3.23437e+02	8.35000e+02	2.77705e+00	3.25000e+02
838	3.26474e+02	8.38000e+02	2.76428e+00	3.28000e+02
841	3.29508e+02	8.41000e+02	2.75116e+00	3.31000e+02
844	3.32634e+02	8.44000e+02	2.73742e+00	3.34000e+02
847	3.35642e+02	8.47000e+02	2.72279e+00	3.37000e+02
850	3.38684e+02	8.50000e+02	2.70624e+00	3.40000e+02
853	3.41753e+02	8.53000e+02	2.68729e+00	3.43000e+02
856	3.44814e+02	8.56000e+02	2.66520e+00	3.46000e+02
859	3.47854e+02	8.59000e+02	2.63979e+00	3.49000e+02
862	3.50840e+02	8.62000e+02	2.60877e+00	3.52000e+02
865	3.53851e+02	8.65000e+02	2.57245e+00	3.55000e+02
868	3.56889e+02	8.68000e+02	2.53047e+00	3.58000e+02
871	3.59898e+02	8.71000e+02	2.48215e+00	3.61000e+02
874	3.62890e+02	8.74000e+02	2.42669e+00	3.64000e+02
877	3.65908e+02	8.77000e+02	2.36295e+00	3.67000e+02
880	3.68920e+02	8.80000e+02	2.29068e+00	3.70000e+02
883	3.71893e+02	8.83000e+02	2.21144e+00	3.73000e+02
886	3.74870e+02	8.86000e+02	2.12461e+00	3.76000e+02
889	3.77808e+02	8.89000e+02	2.02979e+00	3.79000e+02
892	3.80769e+02	8.92000e+02	1.92848e+00	3.82000e+02
895	3.83762e+02	8.95000e+02	1.82176e+00	3.85000e+02
898	3.86750e+02	8.98000e+02	1.70745e+00	3.88000e+02
901	3.89827e+02	9.01000e+02	1.58829e+00	3.91000e+02
904	3.92869e+02	9.04000e+02	1.46560e+00	3.94000e+02
907	3.95946e+02	9.07000e+02	1.34093e+00	3.97000e+02
910	3.98882e+02	9.10000e+02	1.21494e+00	4.00000e+02
913	4.01806e+02	9.13000e+02	1.08974e+00	4.03000e+02
916	4.04975e+02	9.16000e+02	9.66154e-01	4.06000e+02
919	4.08116e+02	9.19000e+02	8.45140e-01	4.09000e+02
922	4.11168e+02	9.22000e+02	7.29530e-01	4.12000e+02
925	4.14381e+02	9.25000e+02	6.19337e-01	4.15000e+02
928	4.17140e+02	9.28000e+02	5.18415e-01	4.18000e+02
931	4.20334e+02	9.31000e+02	4.28246e-01	4.21000e+02
934	4.23116e+02	9.34000e+02	3.50488e-01	4.24000e+02
937	4.26026e+02	9.37000e+02	2.86808e-01	4.27000e+02
940	4.28962e+02	9.40000e+02	2.33134e-01	4.30000e+02
943	4.31962e+02	9.43000e+02	1.88528e-01	4.33000e+02
946	4.35008e+02	9.46000e+02	1.55199e-01	4.36000e+02
949	4.38048e+02	9.49000e+02	1.29795e-01	4.39000e+02
952	4.41089e+02	9.52000e+02	1.10276e-01	4.42000e+02
955	4.44099e+02	9.55000e+02	9.48849e-02	4.45000e+02
958	4.47098e+02	9.58000e+02	8.47342e-02	4.48000e+02
961	4.50127e+02	9.61000e+02	7.74098e-02	4.51000e+02
964	4.53298e+02	9.64000e+02	7.21956e-02	4.54000e+02
967	4.56503e+02	9.67000e+02	6.83920e-02	4.57000e+02
970	4.59460e+02	9.70000e+02	6.61687e-02	4.60000e+02
973	4.62429e+02	9.73000e+02	6.46501e-02	4.63000e+02
976	4.65464e+02	9.76000e+02	6.36041e-02	4.66000e+02
979	4.68425e+02	9.79000e+02	6.28308e-02	4.69000e+02
982	4.71382e+02	9.82000e+02	6.23721e-02	4.72000e+02
985	4.74403e+02	9.85000e+02	6.20760e-02	4.75000e+02
988	4.77374e+02	9.88000e+02	6.18512e-02	4.78000e+02
991	4.80478e+02	9.91000e+02	6.16632e-02	4.81000e+02
994	4.83469e+02	9.94000e+02	6.15143e-02	4.84000e+02
997	4.86458e+02	9.97000e+02	6.13940e-02	4.87000e+02
1000	4.89538e+02	1.00000e+03	6.12990e-02	4.90000e+02
1003	4.92702e+02	1.00300e+03	6.12224e-02	4.93000e+02
1006	4.95845e+02	1.00600e+03	6.11529e-02	4.96000e+02
1009	4.98789e+02	1.00900e+03	6.10932e-02	4.99000e+02
1012	5.01823e+02	1.01200e+03	6.10720e-02	5.02000e+02
1015	5.04810e+02	1.01500e+03	6.10344e-02	5.05000e+02
1018	5.07641e+02	1.01800e+03	6.09541e-02	5.08000e+02
1021	5.10166e+02	1.02100e+03	6.08695e-02	5.11000e+02
1024	5.12951e+02	1.02400e+03	6.08267e-02	5.14000e+02
1027	5.15937e+02	1.02700e+03	6.07936e-02	5.17000e+02
1030	5.18750e+02	1.03000e+03	6.07540e-02	5.20000e+02
1033	5.21566e+02	1.03300e+03	6.06877e-02	5.23000e+02
1036	5.24330e+02	1.03600e+03	6.06120e-02	5.26000e+02
1039	5.27232e+02	1.03900e+03	6.05555e-02	5.29000e+02
1042	5.30138e+02	1.04200e+03	6.05316e-02	5.32000e+02
1045	5.33068e+02	1.04500e+03	6.05173e-02	5.35000e+02
1048	5.36018e+02	1.04800e+03	6.04973e-02	5.38000e+02
1051	5.38954e+02	1.05100e+03	6.04621e-02	5.41000e+02
1054	5.41895e+02	1.05400e+03	6.03963e-02	5.44000e+02
1057	5.44839e+02	1.05700e+03	6.03102e-02	5.47000e+02
1060	5.47819e+02	1.06000e+03	6.02566e-02	5.50000e+02
1063	5.50830e+02	1.06300e+03	6.02526e-02	5.53000e+02
1066	5.53885e+02	1.06600e+03	6.03238e-02	5.56000e+02
1069	5.56960e+02	1.06900e+03	6.04082e-02	5.59000e+02
1072	5.59966e+02	1.07200e+03	6.04512e-02	5.62000e+02
1075	5.62968e+02	1.07500e+03	6.04704e-02	5.65000e+02
1078	5.66420e+02	1.07800e+03	6.04681e-02	5.68000e+02
1081	5.69245e+02	1.08100e+03	6.04725e-02	5.71000e+02
1084	5.72075e+02	1.08400e+03	6.04788e-02	5.74000e+02
1087	5.74956e+02	1.08700e+03	6.04582e-02	5.77000e+02
1090	5.77916e+02	1.09000e+03	6.04032e-02	5.80000e+02
1093	5.80966e+02	1.09300e+03	6.03416e-02	5.83000e+02
1096	5.84044e+02	1.09600e+03	6.03138e-02	5.86000e+02
1099	5.87695e+02	1.09900e+03	6.03069e-02	5.89000e+02
1102	5.90649e+02	1.10200e+03	6.03036e-02	5.92000e+02
1105	5.93596e+02	1.10500e+03	6.02625e-02	5.95000e+02
1108	5.96293e+02	1.10800e+03	6.02017e-02	5.98000e+02
1111	5.99202e+02	1.11100e+03	6.01503e-02	6.01000e+02
1114	6.02061e+02	1.11400e+03	6.01282e-02	6.04000e+02
1117	6.04897e+02	1.11700e+03	6.01214e-02	6.07000e+02
1120	6.07787e+02	1.12000e+03	6.01028e-02	6.10000e+02
1123	6.10679e+02	1.12300e+03	6.00789e-02	6.13000e+02
1126	6.13721e+02	1.12600e+03	6.00526e-02	6.16000e+02
1129	6.16508e+02	1.12900e+03	6.00400e-02	6.19000e+02
1132	6.19551e+02	1.13200e+03	6.00523e-02	6.22000e+02
1135	6.22435e+02	1.13500e+03	6.00968e-02	6.25000e+02
1138	6.25380e+02	1.13800e+03	6.01778e-02	6.28000e+02
1141	6.28356e+02	1.14100e+03	6.02151e-02	6.31000e+02
1144	6.31340e+02	1.14400e+03	6.01649e-02	6.34000e+02
1147	6.34217e+02	1.14700e+03	6.00848e-02	6.37000e+02
1150	6.37110e+02	1.15000e+03	6.00154e-02	6.40000e+02
1153	6.40125e+02	1.15300e+03	6.00038e-02	6.43000e+02
1156	6.43121e+02	1.15600e+03	6.00112e-02	6.46000e+02
1159	6.45932e+02	1.15900e+03	6.00065e-02	6.49000e+02
1162	6.50380e+02	1.16200e+03	5.99793e-02	6.52000e+02
1165	6.53159e+02	1.16500e+03	5.99396e-02	6.55000e+02
1168	6.55943e+02	1.16800e+03	5.99022e-02	6.58000e+02
1171	6.58802e+02	1.17100e+03	5.98979e-02	6.61000e+02
1174	6.61701e+02	1.17400e+03	5.99189e-02	6.64000e+02
1177	6.64620e+02	1.17700e+03	5.99033e-02	6.67000e+02
1180	6.67567e+02	1.18000e+03	5.98673e-02	6.70000e+02
1183	6.70497e+02	1.18300e+03	5.98531e-02	6.73000e+02
1186	6.72146e+02	1.18600e+03	5.99168e-02	6.76000e+02
1189	6.74153e+02	1.18900e+03	6.00563e-02	6.79000e+02
1192	6.76140e+02	1.19200e+03	6.01286e-02	6.82000e+02
1195	6.77949e+02	1.19500e+03	6.00928e-02	6.85000e+02
1198	6.79613e+02	1.19800e+03	5.99335e-02	6.88000e+02
1201	6.81104e+02	1.20100e+03	5.98025e-02	6.91000e+02
1204	6.82464e+02	1.20400e+03	5.97428e-02	6.94000e+02
1207	6.83700e+02	1.20700e+03	5.97225e-02	6.97000e+02
1210	6.84822e+02	1.21000e+03	5.97471e-02	7.00000e+02

File: tga_dynamic_n2_dyn60_powder_3mg_r3.txt
index	ts	t	weight	tr
[#]	[°C]	[s]	[mg]	[°C]
643	1.30103e+02	6.43000e+02	2.99747e+00	1.33000e+02
646	1.33106e+02	6.46000e+02	2.99732e+00	1.36000e+02
649	1.36128e+02	6.49000e+02	2.99712e+00	1.39000e+02
652	1.39154e+02	6.52000e+02	2.99687e+00	1.42000e+02
655	1.42182e+02	6.55000e+02	2.99658e+00	1.45000e+02
658	1.45177e+02	6.58000e+02	2.99616e+00	1.48000e+02
661	1.48178e+02	6.61000e+02	2.99555e+00	1.51000e+02
664	1.51193e+02	6.64000e+02	2.99481e+00	1.54000e+02
667	1.54199e+02	6.67000e+02	2.99395e+00	1.57000e+02
670	1.57175e+02	6.70000e+02	2.99294e+00	1.60000e+02
673	1.60199e+02	6.73000e+02	2.99178e+00	1.63000e+02
676	1.63193e+02	6.76000e+02	2.99046e+00	1.66000e+02
679	1.66199e+02	6.79000e+02	2.98905e+00	1.69000e+02
682	1.69197e+02	6.82000e+02	2.98747e+00	1.72000e+02
685	1.72195e+02	6.85000e+02	2.98566e+00	1.75000e+02
688	1.75179e+02	6.88000e+02	2.98355e+00	1.78000e+02
691	1.78192e+02	6.91000e+02	2.98105e+00	1.81000e+02
694	1.81194e+02	6.94000e+02	2.97784e+00	1.84000e+02
697	1.84195e+02	6.97000e+02	2.97393e+00	1.87000e+02
700	1.87202e+02	7.00000e+02	2.96922e+00	1.90000e+02
703	1.90202e+02	7.03000e+02	2.96376e+00	1.93000e+02
706	1.93229e+02	7.06000e+02	2.95719e+00	1.96000e+02
709	1.96224e+02	7.09000e+02	2.94980e+00	1.99000e+02
712	1.99237e+02	7.12000e+02	2.94181e+00	2.02000e+02
715	2.02246e+02	7.15000e+02	2.93350e+00	2.05000e+02
718	2.05267e+02	7.18000e+02	2.92504e+00	2.08000e+02
721	2.08299e+02	7.21000e+02	2.91697e+00	2.11000e+02
724	2.11316e+02	7.24000e+02	2.90966e+00	2.14000e+02
727	2.14352e+02	7.27000e+02	2.90317e+00	2.17000e+02
730	2.17367e+02	7.30000e+02	2.89801e+00	2.20000e+02
733	2.20383e+02	7.33000e+02	2.89382e+00	2.23000e+02
736	2.23447e+02	7.36000e+02	2.89037e+00	2.26000e+02
739	2.26541e+02	7.39000e+02	2.88742e+00	2.29000e+02
742	2.29589e+02	7.42000e+02	2.88498e+00	2.32000e+02
745	2.32623e+02	7.45000e+02	2.88270e+00	2.35000e+02
748	2.35653e+02	7.48000e+02	2.88047e+00	2.38000e+02
751	2.38673e+02	7.51000e+02	2.87824e+00	2.41000e+02
754	2.41689e+02	7.54000e+02	2.87598e+00	2.44000e+02
757	2.44700e+02	7.57000e+02	2.87369e+00	2.47000e+02
760	2.47698e+02	7.60000e+02	2.87140e+00	2.50000e+02
763	2.50721e+02	7.63000e+02	2.86916e+00	2.53000e+02
766	2.53785e+02	7.66000e+02	2.86692e+00	2.56000e+02
769	2.56812e+02	7.69000e+02	2.86468e+00	2.59000e+02
772	2.59872e+02	7.72000e+02	2.86258e+00	2.62000e+02
775	2.62946e+02	7.75000e+02	2.86057e+00	2.65000e+02
778	2.65998e+02	7.78000e+02	2.85864e+00	2.68000e+02
781	2.69008e+02	7.81000e+02	2.85671e+00	2.71000e+02
784	2.72079e+02	7.84000e+02	2.85482e+00	2.74000e+02
787	2.75092e+02	7.87000e+02	2.85291e+00	2.77000e+02
790	2.78155e+02	7.90000e+02	2.85093e+00	2.80000e+02
793	2.81189e+02	7.93000e+02	2.84878e+00	2.83000e+02
796	2.84247e+02	7.96000e+02	2.84637e+00	2.86000e+02
799	2.87294e+02	7.99000e+02	2.84367e+00	2.89000e+02
802	2.90312e+02	8.02000e+02	2.84037e+00	2.92000e+02
805	2.93329e+02	8.05000e+02	2.83642e+00	2.95000e+02
808	2.96351e+02	8.08000e+02	2.83175e+00	2.98000e+02
811	2.99378e+02	8.11000e+02	2.82633e+00	3.01000e+02
814	3.02398e+02	8.14000e+02	2.81973e+00	3.04000e+02
817	3.05447e+02	8.17000e+02	2.81214e+00	3.07000e+02
820	3.08474e+02	8.20000e+02	2.80350e+00	3.10000e+02
823	3.11468e+02	8.23000e+02	2.79395e+00	3.13000e+02
826	3.14475e+02	8.26000e+02	2.78317e+00	3.16000e+02
829	3.17464e+02	8.29000e+02	2.77160e+00	3.19000e+02
832	3.20479e+02	8.32000e+02	2.75946e+00	3.22000e+02
835	3.23549e+02	8.35000e+02	2.74693e+00	3.25000e+02
838	3.26581e+02	8.38000e+02	2.73391e+00	3.28000e+02
841	3.29666e+02	8.41000e+02	2.72048e+00	3.31000e+02
844	3.32778e+02	8.44000e+02	2.70638e+00	3.34000e+02
847	3.35839e+02	8.47000e+02	2.69134e+00	3.37000e+02
850	3.38855e+02	8.50000e+02	2.67424e+00	3.40000e+02
853	3.41904e+02	8.53000e+02	2.65452e+00	3.43000e+02
856	3.44966e+02	8.56000e+02	2.63141e+00	3.46000e+02
859	3.48037e+02	8.59000e+02	2.60481e+00	3.49000e+02
862	3.51032e+02	8.62000e+02	2.57234e+00	3.52000e+02
865	3.54050e+02	8.65000e+02	2.53464e+00	3.55000e+02
868	3.57154e+02	8.68000e+02	2.49055e+00	3.58000e+02
871	3.60270e+02	8.71000e+02	2.44151e+00	3.61000e+02
874	3.63383e+02	8.74000e+02	2.38219e+00	3.64000e+02
877	3.66381e+02	8.77000e+02	2.31565e+00	3.67000e+02
880	3.69312e+02	8.80000e+02	2.24186e+00	3.70000e+02
883	3.72312e+02	8.83000e+02	2.15965e+00	3.73000e+02
886	3.75262e+02	8.86000e+02	2.07064e+00	3.76000e+02
889	3.78203e+02	8.89000e+02	1.97394e+00	3.79000e+02
892	3.81291e+02	8.92000e+02	1.87098e+00	3.82000e+02
895	3.84327e+02	8.95000e+02	1.76277e+00	3.85000e+02
898	3.87353e+02	8.98000e+02	1.64708e+00	3.88000e+02
901	3.90369e+02	9.01000e+02	1.52653e+00	3.91000e+02
904	3.93337e+02	9.04000e+02	1.40285e+00	3.94000e+02
907	3.96376e+02	9.07000e+02	1.27796e+00	3.97000e+02
910	3.99519e+02	9.10000e+02	1.15343e+00	4.00000e+02
913	4.02379e+02	9.13000e+02	1.03099e+00	4.03000e+02
916	4.05440e+02	9.16000e+02	9.10035e-01	4.06000e+02
919	4.08520e+02	9.19000e+02	7.90656e-01	4.09000e+02
922	4.11959e+02	9.22000e+02	6.74703e-01	4.12000e+02
925	4.15164e+02	9.25000e+02	5.62991e-01	4.15000e+02
928	4.18102e+02	9.28000e+02	4.59143e-01	4.18000e+02
931	4.20607e+02	9.31000e+02	3.65887e-01	4.21000e+02
934	4.23438e+02	9.34000e+02	2.85265e-01	4.24000e+02
937	4.26447e+02	9.37000e+02	2.18058e-01	4.27000e+02
940	4.29433e+02	9.40000e+02	1.63798e-01	4.30000e+02
943	4.32482e+02	9.43000e+02	1.18139e-01	4.33000e+02
946	4.35495e+02	9.46000e+02	8.36152e-02	4.36000e+02
949	4.38569e+02	9.49000e+02	5.80138e-02	4.39000e+02
952	4.41761e+02	9.52000e+02	3.80649e-02	4.42000e+02
955	4.44908e+02	9.55000e+02	2.25298e-02	4.45000e+02
958	4.47852e+02	9.58000e+02	1.24581e-02	4.48000e+02
961	4.50769e+02	9.61000e+02	5.20812e-03	4.51000e+02
964	4.53732e+02	9.64000e+02	3.21934e-05	4.54000e+02
967	4.56707e+02	9.67000e+02	-3.73230e-03	4.57000e+02
970	4.59644e+02	9.70000e+02	-5.92462e-03	4.60000e+02
973	4.62651e+02	9.73000e+02	-7.41678e-03	4.63000e+02
976	4.65608e+02	9.76000e+02	-8.41705e-03	4.66000e+02
979	4.68624e+02	9.79000e+02	-9.13900e-03	4.69000e+02
982	4.71737e+02	9.82000e+02	-9.57215e-03	4.72000e+02
985	4.74872e+02	9.85000e+02	-9.87853e-03	4.75000e+02
988	4.77849e+02	9.88000e+02	-1.01029e-02	4.78000e+02
991	4.80840e+02	9.91000e+02	-1.02658e-02	4.81000e+02
994	4.84029e+02	9.94000e+02	-1.03503e-02	4.84000e+02
997	4.87104e+02	9.97000e+02	-1.03814e-02	4.87000e+02
1000	4.90234e+02	1.00000e+03	-1.04086e-02	4.90000e+02
1003	4.93134e+02	1.00300e+03	-1.04564e-02	4.93000e+02
1006	4.96188e+02	1.00600e+03	-1.05393e-02	4.96000e+02
1009	4.99193e+02	1.00900e+03	-1.06213e-02	4.99000e+02
1012	5.02045e+02	1.01200e+03	-1.06887e-02	5.02000e+02
1015	5.05021e+02	1.01500e+03	-1.07601e-02	5.05000e+02
1018	5.07896e+02	1.01800e+03	-1.08231e-02	5.08000e+02
1021	5.10758e+02	1.02100e+03	-1.08483e-02	5.11000e+02
1024	5.13707e+02	1.02400e+03	-1.08519e-02	5.14000e+02
1027	5.16658e+02	1.02700e+03	-1.08679e-02	5.17000e+02
1030	5.19677e+02	1.03000e+03	-1.09073e-02	5.20000e+02
1033	5.22780e+02	1.03300e+03	-1.09479e-02	5.23000e+02
1036	5.25682e+02	1.03600e+03	-1.09892e-02	5.26000e+02
1039	5.28597e+02	1.03900e+03	-1.10316e-02	5.29000e+02
1042	5.31522e+02	1.04200e+03	-1.10713e-02	5.32000e+02
1045	5.34594e+02	1.04500e+03	-1.11082e-02	5.35000e+02
1048	5.37265e+02	1.04800e+03	-1.11362e-02	5.38000e+02
1051	5.40195e+02	1.05100e+03	-1.11518e-02	5.41000e+02
1054	5.42974e+02	1.05400e+03	-1.11796e-02	5.44000e+02
1057	5.45925e+02	1.05700e+03	-1.12410e-02	5.47000e+02
1060	5.48833e+02	1.06000e+03	-1.12996e-02	5.50000e+02
1063	5.51785e+02	1.06300e+03	-1.13316e-02	5.53000e+02
1066	5.54705e+02	1.06600e+03	-1.12885e-02	5.56000e+02
1069	5.57678e+02	1.06900e+03	-1.11891e-02	5.59000e+02
1072	5.60687e+02	1.07200e+03	-1.11222e-02	5.62000e+02
1075	5.63749e+02	1.07500e+03	-1.11198e-02	5.65000e+02
1078	5.66791e+02	1.07800e+03	-1.11901e-02	5.68000e+02
1081	5.69818e+02	1.08100e+03	-1.12359e-02	5.71000e+02
1084	5.73825e+02	1.08400e+03	-1.12437e-02	5.74000e+02
1087	5.75946e+02	1.08700e+03	-1.12494e-02	5.77000e+02
1090	5.78505e+02	1.09000e+03	-1.12645e-02	5.80000e+02
1093	5.81445e+02	1.09300e+03	-1.12786e-02	5.83000e+02
1096	5.84285e+02	1.09600e+03	-1.12844e-02	5.86000e+02
1099	5.87220e+02	1.09900e+03	-1.12754e-02	5.89000e+02
1102	5.90100e+02	1.10200e+03	-1.12394e-02	5.92000e+02
1105	5.92980e+02	1.10500e+03	-1.12080e-02	5.95000e+02
1108	5.95905e+02	1.10800e+03	-1.12191e-02	5.98000e+02
1111	5.98848e+02	1.11100e+03	-1.12269e-02	6.01000e+02
1114	6.01834e+02	1.11400e+03	-1.12319e-02	6.04000e+02
1117	6.04726e+02	1.11700e+03	-1.12404e-02	6.07000e+02
1120	6.07666e+02	1.12000e+03	-1.12407e-02	6.10000e+02
1123	6.10613e+02	1.12300e+03	-1.12519e-02	6.13000e+02
1126	6.13426e+02	1.12600e+03	-1.12717e-02	6.16000e+02
1129	6.16217e+02	1.12900e+03	-1.12878e-02	6.19000e+02
1132	6.19024e+02	1.13200e+03	-1.12949e-02	6.22000e+02
1135	6.21906e+02	1.13500e+03	-1.12970e-02	6.25000e+02
1138	6.24793e+02	1.13800e+03	-1.12869e-02	6.28000e+02
1141	6.27679e+02	1.14100e+03	-1.12757e-02	6.31000e+02
1144	6.30597e+02	1.14400e+03	-1.12837e-02	6.34000e+02
1147	6.33550e+02	1.14700e+03	-1.13116e-02	6.37000e+02
1150	6.36519e+02	1.15000e+03	-1.13516e-02	6.40000e+02
1153	6.39469e+02	1.15300e+03	-1.13723e-02	6.43000e+02
1156	6.42388e+02	1.15600e+03	-1.13730e-02	6.46000e+02
1159	6.45328e+02	1.15900e+03	-1.13759e-02	6.49000e+02
1162	6.48275e+02	1.16200e+03	-1.13874e-02	6.52000e+02
1165	6.51237e+02	1.16500e+03	-1.14082e-02	6.55000e+02
1168	6.54195e+02	1.16800e+03	-1.14339e-02	6.58000e+02
1171	6.57184e+02	1.17100e+03	-1.14436e-02	6.61000e+02
1174	6.60161e+02	1.17400e+03	-1.14374e-02	6.64000e+02
1177	6.63137e+02	1.17700e+03	-1.14364e-02	6.67000e+02
1180	6.66118e+02	1.18000e+03	-1.14346e-02	6.70000e+02
1183	6.69126e+02	1.18300e+03	-1.14492e-02	6.73000e+02
1186	6.70734e+02	1.18600e+03	-1.14338e-02	6.76000e+02
1189	6.72820e+02	1.18900e+03	-1.13220e-02	6.79000e+02
1192	6.75070e+02	1.19200e+03	-1.12344e-02	6.82000e+02
1195	6.78837e+02	1.19500e+03	-1.12420e-02	6.85000e+02
1198	6.80563e+02	1.19800e+03	-1.13654e-02	6.88000e+02
1201	6.81844e+02	1.20100e+03	-1.14659e-02	6.91000e+02
1204	6.83213e+02	1.20400e+03	-1.14918e-02	6.94000e+02
1207	6.84426e+02	1.20700e+03	-1.14756e-02	6.97000e+02
1210	6.85550e+02	1.21000e+03	-1.14326e-02	7.00000e+02