Folder: Pyrolysis_BESKID/Experiments/TUBS/tga_nonisotherm (part 24)

File: tga_dynamic_n2_dyn30_piece_3mg_r2.txt
index	ts	t	weight	tr
[#]	[°C]	[s]	[mg]	[°C]
683	1.31474e+02	6.83000e+02	3.01145e+00	1.31500e+02
690	1.35017e+02	6.90000e+02	3.01132e+00	1.35000e+02
697	1.38556e+02	6.97000e+02	3.01114e+00	1.38500e+02
704	1.42099e+02	7.04000e+02	3.01090e+00	1.42000e+02
711	1.45629e+02	7.11000e+02	3.01074e+00	1.45500e+02
718	1.49165e+02	7.18000e+02	3.01046e+00	1.49000e+02
725	1.52713e+02	7.25000e+02	3.01034e+00	1.52500e+02
732	1.56262e+02	7.32000e+02	3.00998e+00	1.56000e+02
739	1.59786e+02	7.39000e+02	3.00950e+00	1.59500e+02
746	1.63326e+02	7.46000e+02	3.00923e+00	1.63000e+02
753	1.66882e+02	7.53000e+02	3.00903e+00	1.66500e+02
760	1.70449e+02	7.60000e+02	3.00860e+00	1.70000e+02
767	1.74018e+02	7.67000e+02	3.00811e+00	1.73500e+02
774	1.77571e+02	7.74000e+02	3.00762e+00	1.77000e+02
781	1.81120e+02	7.81000e+02	3.00720e+00	1.80500e+02
788	1.84688e+02	7.88000e+02	3.00663e+00	1.84000e+02
795	1.88256e+02	7.95000e+02	3.00579e+00	1.87500e+02
802	1.91834e+02	8.02000e+02	3.00464e+00	1.91000e+02
809	1.95384e+02	8.09000e+02	3.00328e+00	1.94500e+02
816	1.98939e+02	8.16000e+02	3.00186e+00	1.98000e+02
823	2.02517e+02	8.23000e+02	3.00023e+00	2.01500e+02
830	2.06073e+02	8.30000e+02	2.99818e+00	2.05000e+02
837	2.09638e+02	8.37000e+02	2.99599e+00	2.08500e+02
844	2.13211e+02	8.44000e+02	2.99341e+00	2.12000e+02
851	2.16781e+02	8.51000e+02	2.99085e+00	2.15500e+02
858	2.20376e+02	8.58000e+02	2.98852e+00	2.19000e+02
865	2.23953e+02	8.65000e+02	2.98612e+00	2.22500e+02
872	2.27531e+02	8.72000e+02	2.98363e+00	2.26000e+02
879	2.31122e+02	8.79000e+02	2.98094e+00	2.29500e+02
886	2.34705e+02	8.86000e+02	2.97824e+00	2.33000e+02
893	2.38303e+02	8.93000e+02	2.97557e+00	2.36500e+02
900	2.41871e+02	9.00000e+02	2.97278e+00	2.40000e+02
907	2.45410e+02	9.07000e+02	2.96989e+00	2.43500e+02
914	2.49000e+02	9.14000e+02	2.96675e+00	2.47000e+02
921	2.52566e+02	9.21000e+02	2.96372e+00	2.50500e+02
928	2.56129e+02	9.28000e+02	2.96061e+00	2.54000e+02
935	2.59685e+02	9.35000e+02	2.95733e+00	2.57500e+02
942	2.63226e+02	9.42000e+02	2.95395e+00	2.61000e+02
949	2.66698e+02	9.49000e+02	2.95061e+00	2.64500e+02
956	2.70243e+02	9.56000e+02	2.94729e+00	2.68000e+02
963	2.73793e+02	9.63000e+02	2.94365e+00	2.71500e+02
970	2.77255e+02	9.70000e+02	2.93964e+00	2.75000e+02
977	2.80764e+02	9.77000e+02	2.93469e+00	2.78500e+02
984	2.84306e+02	9.84000e+02	2.92830e+00	2.82000e+02
991	2.87861e+02	9.91000e+02	2.92249e+00	2.85500e+02
998	2.91447e+02	9.98000e+02	2.91703e+00	2.89000e+02
1005	2.95022e+02	1.00500e+03	2.91127e+00	2.92500e+02
1012	2.98546e+02	1.01200e+03	2.90474e+00	2.96000e+02
1019	3.02089e+02	1.01900e+03	2.89755e+00	2.99500e+02
1026	3.05620e+02	1.02600e+03	2.88960e+00	3.03000e+02
1033	3.09106e+02	1.03300e+03	2.88098e+00	3.06500e+02
1040	3.12586e+02	1.04000e+03	2.87127e+00	3.10000e+02
1047	3.16022e+02	1.04700e+03	2.86017e+00	3.13500e+02
1054	3.19049e+02	1.05400e+03	2.84727e+00	3.17000e+02
1061	3.22283e+02	1.06100e+03	2.83297e+00	3.20500e+02
1068	3.25756e+02	1.06800e+03	2.81810e+00	3.24000e+02
1075	3.29248e+02	1.07500e+03	2.80378e+00	3.27500e+02
1082	3.32757e+02	1.08200e+03	2.78969e+00	3.31000e+02
1089	3.36263e+02	1.08900e+03	2.77448e+00	3.34500e+02
1096	3.39753e+02	1.09600e+03	2.75717e+00	3.38000e+02
1103	3.43254e+02	1.10300e+03	2.73580e+00	3.41500e+02
1110	3.46736e+02	1.11000e+03	2.70854e+00	3.45000e+02
1117	3.50229e+02	1.11700e+03	2.67554e+00	3.48500e+02
1124	3.53699e+02	1.12400e+03	2.63536e+00	3.52000e+02
1131	3.57155e+02	1.13100e+03	2.58540e+00	3.55500e+02
1138	3.60628e+02	1.13800e+03	2.52025e+00	3.59000e+02
1145	3.64113e+02	1.14500e+03	2.43637e+00	3.62500e+02
1152	3.67578e+02	1.15200e+03	2.33353e+00	3.66000e+02
1159	3.71032e+02	1.15900e+03	2.21458e+00	3.69500e+02
1166	3.74443e+02	1.16600e+03	2.07802e+00	3.73000e+02
1173	3.77883e+02	1.17300e+03	1.92763e+00	3.76500e+02
1180	3.81324e+02	1.18000e+03	1.76584e+00	3.80000e+02
1187	3.84772e+02	1.18700e+03	1.59409e+00	3.83500e+02
1194	3.88218e+02	1.19400e+03	1.41564e+00	3.87000e+02
1201	3.91690e+02	1.20100e+03	1.23433e+00	3.90500e+02
1208	3.95208e+02	1.20800e+03	1.04624e+00	3.94000e+02
1215	3.98723e+02	1.21500e+03	8.51173e-01	3.97500e+02
1222	4.02348e+02	1.22200e+03	6.66044e-01	4.01000e+02
1229	4.05928e+02	1.22900e+03	5.00625e-01	4.04500e+02
1236	4.09549e+02	1.23600e+03	3.63124e-01	4.08000e+02
1243	4.13178e+02	1.24300e+03	2.55250e-01	4.11500e+02
1250	4.16826e+02	1.25000e+03	1.76306e-01	4.15000e+02
1257	4.20389e+02	1.25700e+03	1.20000e-01	4.18500e+02
1264	4.24007e+02	1.26400e+03	8.14569e-02	4.22000e+02
1271	4.27651e+02	1.27100e+03	5.53078e-02	4.25500e+02
1278	4.31249e+02	1.27800e+03	3.79918e-02	4.29000e+02
1285	4.34832e+02	1.28500e+03	2.62145e-02	4.32500e+02
1292	4.38350e+02	1.29200e+03	1.81659e-02	4.36000e+02
1299	4.41836e+02	1.29900e+03	1.19930e-02	4.39500e+02
1306	4.45276e+02	1.30600e+03	7.59687e-03	4.43000e+02
1313	4.48723e+02	1.31300e+03	4.37209e-03	4.46500e+02
1320	4.52185e+02	1.32000e+03	1.92559e-03	4.50000e+02
1327	4.55639e+02	1.32700e+03	2.39141e-04	4.53500e+02
1334	4.59089e+02	1.33400e+03	-7.51547e-04	4.57000e+02
1341	4.62533e+02	1.34100e+03	-1.07536e-03	4.60500e+02
1348	4.65984e+02	1.34800e+03	-1.58414e-03	4.64000e+02
1355	4.69439e+02	1.35500e+03	-2.08076e-03	4.67500e+02
1362	4.72853e+02	1.36200e+03	-2.44882e-03	4.71000e+02
1369	4.76255e+02	1.36900e+03	-2.73486e-03	4.74500e+02
1376	4.79663e+02	1.37600e+03	-2.94433e-03	4.78000e+02
1383	4.83096e+02	1.38300e+03	-3.09925e-03	4.81500e+02
1390	4.86551e+02	1.39000e+03	-3.34584e-03	4.85000e+02
1397	4.89987e+02	1.39700e+03	-3.52643e-03	4.88500e+02
1404	4.93432e+02	1.40400e+03	-3.79545e-03	4.92000e+02
1411	4.96817e+02	1.41100e+03	-4.17694e-03	4.95500e+02
1418	5.00202e+02	1.41800e+03	-4.36452e-03	4.99000e+02
1425	5.03624e+02	1.42500e+03	-4.38165e-03	5.02500e+02
1432	5.07047e+02	1.43200e+03	-4.52312e-03	5.06000e+02
1439	5.10457e+02	1.43900e+03	-4.62422e-03	5.09500e+02
1446	5.13887e+02	1.44600e+03	-4.95547e-03	5.13000e+02
1453	5.17314e+02	1.45300e+03	-5.32643e-03	5.16500e+02
1460	5.20745e+02	1.46000e+03	-4.86196e-03	5.20000e+02
1467	5.24176e+02	1.46700e+03	-4.98820e-03	5.23500e+02
1474	5.27613e+02	1.47400e+03	-5.39031e-03	5.27000e+02
1481	5.31044e+02	1.48100e+03	-5.56344e-03	5.30500e+02
1488	5.34462e+02	1.48800e+03	-5.62742e-03	5.34000e+02
1495	5.37889e+02	1.49500e+03	-5.73755e-03	5.37500e+02
1502	5.41306e+02	1.50200e+03	-6.02943e-03	5.41000e+02
1509	5.44729e+02	1.50900e+03	-6.03287e-03	5.44500e+02
1516	5.48184e+02	1.51600e+03	-6.17562e-03	5.48000e+02
1523	5.51639e+02	1.52300e+03	-6.38848e-03	5.51500e+02
1530	5.55110e+02	1.53000e+03	-6.65981e-03	5.55000e+02
1537	5.58569e+02	1.53700e+03	-6.91728e-03	5.58500e+02
1544	5.61995e+02	1.54400e+03	-6.62284e-03	5.62000e+02
1551	5.65455e+02	1.55100e+03	-6.76279e-03	5.65500e+02
1558	5.68886e+02	1.55800e+03	-6.91972e-03	5.69000e+02
1565	5.72317e+02	1.56500e+03	-7.24542e-03	5.72500e+02
1572	5.75755e+02	1.57200e+03	-7.42483e-03	5.76000e+02
1579	5.79232e+02	1.57900e+03	-7.37953e-03	5.79500e+02
1586	5.82692e+02	1.58600e+03	-7.53213e-03	5.83000e+02
1593	5.86185e+02	1.59300e+03	-7.69876e-03	5.86500e+02
1600	5.89723e+02	1.60000e+03	-7.74247e-03	5.90000e+02
1607	5.93201e+02	1.60700e+03	-7.90972e-03	5.93500e+02
1614	5.96690e+02	1.61400e+03	-7.98568e-03	5.97000e+02
1621	6.00149e+02	1.62100e+03	-8.03868e-03	6.00500e+02
1628	6.03614e+02	1.62800e+03	-8.21661e-03	6.04000e+02
1635	6.07106e+02	1.63500e+03	-8.40125e-03	6.07500e+02
1642	6.10571e+02	1.64200e+03	-8.47877e-03	6.11000e+02
1649	6.14045e+02	1.64900e+03	-8.39815e-03	6.14500e+02
1656	6.17564e+02	1.65600e+03	-8.37481e-03	6.18000e+02
1663	6.21009e+02	1.66300e+03	-8.44505e-03	6.21500e+02
1670	6.24462e+02	1.67000e+03	-8.54851e-03	6.25000e+02
1677	6.27925e+02	1.67700e+03	-8.64717e-03	6.28500e+02
1684	6.31388e+02	1.68400e+03	-8.75176e-03	6.32000e+02
1691	6.34915e+02	1.69100e+03	-8.71150e-03	6.35500e+02
1698	6.38443e+02	1.69800e+03	-8.73541e-03	6.39000e+02
1705	6.41960e+02	1.70500e+03	-8.85055e-03	6.42500e+02
1712	6.45457e+02	1.71200e+03	-8.93907e-03	6.46000e+02
1719	6.48979e+02	1.71900e+03	-9.14449e-03	6.49500e+02
1726	6.52471e+02	1.72600e+03	-9.36921e-03	6.53000e+02
1733	6.55969e+02	1.73300e+03	-8.72097e-03	6.56500e+02
1740	6.59519e+02	1.74000e+03	-8.61553e-03	6.60000e+02
1747	6.63079e+02	1.74700e+03	-9.08494e-03	6.63500e+02
1754	6.66646e+02	1.75400e+03	-9.26318e-03	6.67000e+02
1761	6.70183e+02	1.76100e+03	-9.16956e-03	6.70500e+02
1768	6.73676e+02	1.76800e+03	-9.23213e-03	6.74000e+02
1775	6.77187e+02	1.77500e+03	-9.21063e-03	6.77500e+02
1782	6.80817e+02	1.78200e+03	-9.36750e-03	6.81000e+02
1789	6.84330e+02	1.78900e+03	-9.70484e-03	6.84500e+02
1796	6.87016e+02	1.79600e+03	-9.45036e-03	6.88000e+02
1803	6.89322e+02	1.80300e+03	-9.29834e-03	6.91500e+02
1810	6.91227e+02	1.81000e+03	-9.56902e-03	6.95000e+02
1817	6.92840e+02	1.81700e+03	-9.59273e-03	6.98500e+02
1820	6.93422e+02	1.82000e+03	-9.47888e-03	7.00000e+02

File: tga_dynamic_n2_dyn30_piece_6mg_r1.txt
index	ts	t	weight	tr
[#]	[°C]	[s]	[mg]	[°C]
683	1.30821e+02	6.83000e+02	5.95867e+00	1.31500e+02
690	1.34352e+02	6.90000e+02	5.95835e+00	1.35000e+02
697	1.37909e+02	6.97000e+02	5.95796e+00	1.38500e+02
704	1.41443e+02	7.04000e+02	5.95760e+00	1.42000e+02
711	1.44998e+02	7.11000e+02	5.95722e+00	1.45500e+02
718	1.48573e+02	7.18000e+02	5.95662e+00	1.49000e+02
725	1.52141e+02	7.25000e+02	5.95596e+00	1.52500e+02
732	1.55687e+02	7.32000e+02	5.95523e+00	1.56000e+02
739	1.59216e+02	7.39000e+02	5.95448e+00	1.59500e+02
746	1.62763e+02	7.46000e+02	5.95378e+00	1.63000e+02
753	1.66305e+02	7.53000e+02	5.95307e+00	1.66500e+02
760	1.69866e+02	7.60000e+02	5.95216e+00	1.70000e+02
767	1.73415e+02	7.67000e+02	5.95116e+00	1.73500e+02
774	1.76958e+02	7.74000e+02	5.95022e+00	1.77000e+02
781	1.80527e+02	7.81000e+02	5.94917e+00	1.80500e+02
788	1.84088e+02	7.88000e+02	5.94809e+00	1.84000e+02
795	1.87638e+02	7.95000e+02	5.94682e+00	1.87500e+02
802	1.91186e+02	8.02000e+02	5.94518e+00	1.91000e+02
809	1.94745e+02	8.09000e+02	5.94318e+00	1.94500e+02
816	1.98291e+02	8.16000e+02	5.94067e+00	1.98000e+02
823	2.01834e+02	8.23000e+02	5.93777e+00	2.01500e+02
830	2.05390e+02	8.30000e+02	5.93446e+00	2.05000e+02
837	2.08953e+02	8.37000e+02	5.93069e+00	2.08500e+02
844	2.12525e+02	8.44000e+02	5.92647e+00	2.12000e+02
851	2.16096e+02	8.51000e+02	5.92220e+00	2.15500e+02
858	2.19683e+02	8.58000e+02	5.91797e+00	2.19000e+02
865	2.23277e+02	8.65000e+02	5.91372e+00	2.22500e+02
872	2.26864e+02	8.72000e+02	5.90949e+00	2.26000e+02
879	2.30487e+02	8.79000e+02	5.90511e+00	2.29500e+02
886	2.34041e+02	8.86000e+02	5.90055e+00	2.33000e+02
893	2.37601e+02	8.93000e+02	5.89593e+00	2.36500e+02
900	2.41146e+02	9.00000e+02	5.89105e+00	2.40000e+02
907	2.44731e+02	9.07000e+02	5.88594e+00	2.43500e+02
914	2.48319e+02	9.14000e+02	5.88064e+00	2.47000e+02
921	2.51890e+02	9.21000e+02	5.87523e+00	2.50500e+02
928	2.55445e+02	9.28000e+02	5.86973e+00	2.54000e+02
935	2.58987e+02	9.35000e+02	5.86387e+00	2.57500e+02
942	2.62566e+02	9.42000e+02	5.85748e+00	2.61000e+02
949	2.66141e+02	9.49000e+02	5.85126e+00	2.64500e+02
956	2.69711e+02	9.56000e+02	5.84496e+00	2.68000e+02
963	2.73278e+02	9.63000e+02	5.83822e+00	2.71500e+02
970	2.76860e+02	9.70000e+02	5.83109e+00	2.75000e+02
977	2.80445e+02	9.77000e+02	5.82346e+00	2.78500e+02
984	2.83989e+02	9.84000e+02	5.81513e+00	2.82000e+02
991	2.87595e+02	9.91000e+02	5.80575e+00	2.85500e+02
998	2.91193e+02	9.98000e+02	5.79589e+00	2.89000e+02
1005	2.94753e+02	1.00500e+03	5.78499e+00	2.92500e+02
1012	2.98275e+02	1.01200e+03	5.77308e+00	2.96000e+02
1019	3.01776e+02	1.01900e+03	5.75998e+00	2.99500e+02
1026	3.05313e+02	1.02600e+03	5.74446e+00	3.03000e+02
1033	3.08851e+02	1.03300e+03	5.72729e+00	3.06500e+02
1040	3.12399e+02	1.04000e+03	5.70853e+00	3.10000e+02
1047	3.15931e+02	1.04700e+03	5.68826e+00	3.13500e+02
1054	3.19399e+02	1.05400e+03	5.66671e+00	3.17000e+02
1061	3.22803e+02	1.06100e+03	5.64426e+00	3.20500e+02
1068	3.26143e+02	1.06800e+03	5.62032e+00	3.24000e+02
1075	3.29605e+02	1.07500e+03	5.59480e+00	3.27500e+02
1082	3.33102e+02	1.08200e+03	5.56856e+00	3.31000e+02
1089	3.36601e+02	1.08900e+03	5.54019e+00	3.34500e+02
1096	3.40102e+02	1.09600e+03	5.50856e+00	3.38000e+02
1103	3.43606e+02	1.10300e+03	5.47210e+00	3.41500e+02
1110	3.47108e+02	1.11000e+03	5.42777e+00	3.45000e+02
1117	3.50572e+02	1.11700e+03	5.37145e+00	3.48500e+02
1124	3.54041e+02	1.12400e+03	5.29607e+00	3.52000e+02
1131	3.57600e+02	1.13100e+03	5.19944e+00	3.55500e+02
1138	3.61084e+02	1.13800e+03	5.07785e+00	3.59000e+02
1145	3.64525e+02	1.14500e+03	4.91998e+00	3.62500e+02
1152	3.67997e+02	1.15200e+03	4.72387e+00	3.66000e+02
1159	3.71456e+02	1.15900e+03	4.49800e+00	3.69500e+02
1166	3.74857e+02	1.16600e+03	4.24375e+00	3.73000e+02
1173	3.78296e+02	1.17300e+03	3.96525e+00	3.76500e+02
1180	3.81760e+02	1.18000e+03	3.65850e+00	3.80000e+02
1187	3.85216e+02	1.18700e+03	3.32683e+00	3.83500e+02
1194	3.88690e+02	1.19400e+03	2.98037e+00	3.87000e+02
1201	3.92167e+02	1.20100e+03	2.62703e+00	3.90500e+02
1208	3.95670e+02	1.20800e+03	2.27418e+00	3.94000e+02
1215	3.99139e+02	1.21500e+03	1.92586e+00	3.97500e+02
1222	4.02641e+02	1.22200e+03	1.58683e+00	4.01000e+02
1229	4.06251e+02	1.22900e+03	1.26031e+00	4.04500e+02
1236	4.09890e+02	1.23600e+03	9.57771e-01	4.08000e+02
1243	4.13631e+02	1.24300e+03	7.03253e-01	4.11500e+02
1250	4.17390e+02	1.25000e+03	5.06317e-01	4.15000e+02
1257	4.21120e+02	1.25700e+03	3.58379e-01	4.18500e+02
1264	4.24855e+02	1.26400e+03	2.53999e-01	4.22000e+02
1271	4.28411e+02	1.27100e+03	1.79828e-01	4.25500e+02
1278	4.31956e+02	1.27800e+03	1.29740e-01	4.29000e+02
1285	4.35528e+02	1.28500e+03	9.44987e-02	4.32500e+02
1292	4.39275e+02	1.29200e+03	6.92614e-02	4.36000e+02
1299	4.42920e+02	1.29900e+03	5.00596e-02	4.39500e+02
1306	4.46473e+02	1.30600e+03	3.52458e-02	4.43000e+02
1313	4.50016e+02	1.31300e+03	2.38945e-02	4.46500e+02
1320	4.54051e+02	1.32000e+03	1.55754e-02	4.50000e+02
1327	4.57062e+02	1.32700e+03	1.01416e-02	4.53500e+02
1334	4.60329e+02	1.33400e+03	7.35351e-03	4.57000e+02
1341	4.63464e+02	1.34100e+03	5.96287e-03	4.60500e+02
1348	4.66844e+02	1.34800e+03	4.93214e-03	4.64000e+02
1355	4.70253e+02	1.35500e+03	4.10947e-03	4.67500e+02
1362	4.73680e+02	1.36200e+03	3.48320e-03	4.71000e+02
1369	4.77101e+02	1.36900e+03	3.13163e-03	4.74500e+02
1376	4.80548e+02	1.37600e+03	2.70576e-03	4.78000e+02
1383	4.83981e+02	1.38300e+03	2.31119e-03	4.81500e+02
1390	4.87430e+02	1.39000e+03	2.06754e-03	4.85000e+02
1397	4.90872e+02	1.39700e+03	1.90963e-03	4.88500e+02
1404	4.94312e+02	1.40400e+03	1.60847e-03	4.92000e+02
1411	4.97765e+02	1.41100e+03	1.17968e-03	4.95500e+02
1418	5.01216e+02	1.41800e+03	9.62443e-04	4.99000e+02
1425	5.04646e+02	1.42500e+03	6.28722e-04	5.02500e+02
1432	5.08114e+02	1.43200e+03	4.41359e-04	5.06000e+02
1439	5.11544e+02	1.43900e+03	4.11583e-04	5.09500e+02
1446	5.14968e+02	1.44600e+03	1.26384e-04	5.13000e+02
1453	5.18412e+02	1.45300e+03	-3.67478e-04	5.16500e+02
1460	5.21845e+02	1.46000e+03	-1.53345e-06	5.20000e+02
1467	5.25286e+02	1.46700e+03	-6.38514e-05	5.23500e+02
1474	5.28746e+02	1.47400e+03	-2.57216e-04	5.27000e+02
1481	5.32193e+02	1.48100e+03	-6.04856e-04	5.30500e+02
1488	5.35656e+02	1.48800e+03	-6.90939e-04	5.34000e+02
1495	5.39109e+02	1.49500e+03	-8.71855e-04	5.37500e+02
1502	5.42561e+02	1.50200e+03	-1.15797e-03	5.41000e+02
1509	5.45988e+02	1.50900e+03	-1.26988e-03	5.44500e+02
1516	5.49434e+02	1.51600e+03	-1.40169e-03	5.48000e+02
1523	5.52896e+02	1.52300e+03	-1.53013e-03	5.51500e+02
1530	5.56317e+02	1.53000e+03	-1.76379e-03	5.55000e+02
1537	5.59736e+02	1.53700e+03	-2.12278e-03	5.58500e+02
1544	5.63146e+02	1.54400e+03	-1.98005e-03	5.62000e+02
1551	5.66587e+02	1.55100e+03	-2.17268e-03	5.65500e+02
1558	5.70018e+02	1.55800e+03	-2.18615e-03	5.69000e+02
1565	5.73505e+02	1.56500e+03	-2.41830e-03	5.72500e+02
1572	5.76943e+02	1.57200e+03	-2.49102e-03	5.76000e+02
1579	5.80343e+02	1.57900e+03	-2.45355e-03	5.79500e+02
1586	5.83834e+02	1.58600e+03	-2.53424e-03	5.83000e+02
1593	5.87266e+02	1.59300e+03	-2.78050e-03	5.86500e+02
1600	5.90717e+02	1.60000e+03	-2.92047e-03	5.90000e+02
1607	5.94174e+02	1.60700e+03	-3.11072e-03	5.93500e+02
1614	5.97678e+02	1.61400e+03	-3.22141e-03	5.97000e+02
1621	6.01133e+02	1.62100e+03	-3.39767e-03	6.00500e+02
1628	6.04713e+02	1.62800e+03	-3.82875e-03	6.04000e+02
1635	6.08232e+02	1.63500e+03	-3.59449e-03	6.07500e+02
1642	6.11694e+02	1.64200e+03	-3.62655e-03	6.11000e+02
1649	6.15158e+02	1.64900e+03	-3.58302e-03	6.14500e+02
1656	6.18628e+02	1.65600e+03	-3.85338e-03	6.18000e+02
1663	6.22167e+02	1.66300e+03	-4.03590e-03	6.21500e+02
1670	6.25820e+02	1.67000e+03	-4.05618e-03	6.25000e+02
1677	6.29386e+02	1.67700e+03	-4.36323e-03	6.28500e+02
1684	6.33057e+02	1.68400e+03	-4.39216e-03	6.32000e+02
1691	6.36615e+02	1.69100e+03	-4.38593e-03	6.35500e+02
1698	6.40181e+02	1.69800e+03	-4.41814e-03	6.39000e+02
1705	6.43704e+02	1.70500e+03	-4.34398e-03	6.42500e+02
1712	6.47244e+02	1.71200e+03	-4.52803e-03	6.46000e+02
1719	6.50841e+02	1.71900e+03	-4.72111e-03	6.49500e+02
1726	6.54310e+02	1.72600e+03	-5.00205e-03	6.53000e+02
1733	6.57901e+02	1.73300e+03	-4.43733e-03	6.56500e+02
1740	6.61412e+02	1.74000e+03	-4.46492e-03	6.60000e+02
1747	6.64920e+02	1.74700e+03	-4.94652e-03	6.63500e+02
1754	6.68380e+02	1.75400e+03	-5.00385e-03	6.67000e+02
1761	6.71883e+02	1.76100e+03	-4.82346e-03	6.70500e+02
1768	6.75357e+02	1.76800e+03	-4.96342e-03	6.74000e+02
1775	6.78839e+02	1.77500e+03	-5.13569e-03	6.77500e+02
1782	6.82262e+02	1.78200e+03	-5.26890e-03	6.81000e+02
1789	6.85705e+02	1.78900e+03	-5.56205e-03	6.84500e+02
1796	6.88552e+02	1.79600e+03	-5.31819e-03	6.88000e+02
1803	6.90958e+02	1.80300e+03	-5.00843e-03	6.91500e+02
1810	6.92954e+02	1.81000e+03	-5.23734e-03	6.95000e+02
1817	6.94554e+02	1.81700e+03	-5.40434e-03	6.98500e+02
1820	6.95150e+02	1.82000e+03	-5.39660e-03	7.00000e+02