Folder: Pyrolysis_BESKID/Experiments/TUBS/tga_nonisotherm (part 15)

File: tga_dynamic_n2_dyn20_piece_1mg_r2.txt
index	ts	t	weight	tr
[#]	[°C]	[s]	[mg]	[°C]
723	1.30823e+02	7.23000e+02	1.02316e+00	1.31000e+02
733	1.34171e+02	7.33000e+02	1.02314e+00	1.34333e+02
743	1.37527e+02	7.43000e+02	1.02308e+00	1.37667e+02
753	1.40880e+02	7.53000e+02	1.02307e+00	1.41000e+02
763	1.44273e+02	7.63000e+02	1.02318e+00	1.44333e+02
773	1.47724e+02	7.73000e+02	1.02311e+00	1.47667e+02
783	1.51122e+02	7.83000e+02	1.02306e+00	1.51000e+02
793	1.54499e+02	7.93000e+02	1.02282e+00	1.54333e+02
803	1.57868e+02	8.03000e+02	1.02284e+00	1.57667e+02
813	1.61265e+02	8.13000e+02	1.02285e+00	1.61000e+02
823	1.64648e+02	8.23000e+02	1.02282e+00	1.64333e+02
833	1.68016e+02	8.33000e+02	1.02286e+00	1.67667e+02
843	1.71396e+02	8.43000e+02	1.02284e+00	1.71000e+02
853	1.74792e+02	8.53000e+02	1.02276e+00	1.74333e+02
863	1.78191e+02	8.63000e+02	1.02266e+00	1.77667e+02
873	1.81570e+02	8.73000e+02	1.02228e+00	1.81000e+02
883	1.84955e+02	8.83000e+02	1.02185e+00	1.84333e+02
893	1.88338e+02	8.93000e+02	1.02131e+00	1.87667e+02
903	1.91728e+02	9.03000e+02	1.02069e+00	1.91000e+02
913	1.95124e+02	9.13000e+02	1.02005e+00	1.94333e+02
923	1.98499e+02	9.23000e+02	1.01896e+00	1.97667e+02
933	2.01873e+02	9.33000e+02	1.01797e+00	2.01000e+02
943	2.05265e+02	9.43000e+02	1.01691e+00	2.04333e+02
953	2.08627e+02	9.53000e+02	1.01585e+00	2.07667e+02
963	2.12027e+02	9.63000e+02	1.01459e+00	2.11000e+02
973	2.15424e+02	9.73000e+02	1.01355e+00	2.14333e+02
983	2.18805e+02	9.83000e+02	1.01233e+00	2.17667e+02
993	2.22191e+02	9.93000e+02	1.01149e+00	2.21000e+02
1003	2.25593e+02	1.00300e+03	1.01034e+00	2.24333e+02
1013	2.28979e+02	1.01300e+03	1.00876e+00	2.27667e+02
1023	2.32377e+02	1.02300e+03	1.00766e+00	2.31000e+02
1033	2.35761e+02	1.03300e+03	1.00631e+00	2.34333e+02
1043	2.39136e+02	1.04300e+03	1.00504e+00	2.37667e+02
1053	2.42524e+02	1.05300e+03	1.00381e+00	2.41000e+02
1063	2.45887e+02	1.06300e+03	1.00248e+00	2.44333e+02
1073	2.49275e+02	1.07300e+03	1.00107e+00	2.47667e+02
1083	2.52639e+02	1.08300e+03	9.99910e-01	2.51000e+02
1093	2.56001e+02	1.09300e+03	9.98597e-01	2.54333e+02
1103	2.59371e+02	1.10300e+03	9.97144e-01	2.57667e+02
1113	2.62755e+02	1.11300e+03	9.95756e-01	2.61000e+02
1123	2.66114e+02	1.12300e+03	9.94415e-01	2.64333e+02
1133	2.69503e+02	1.13300e+03	9.93103e-01	2.67667e+02
1143	2.72859e+02	1.14300e+03	9.91588e-01	2.71000e+02
1153	2.76229e+02	1.15300e+03	9.90067e-01	2.74333e+02
1163	2.79585e+02	1.16300e+03	9.87889e-01	2.77667e+02
1173	2.82957e+02	1.17300e+03	9.85918e-01	2.81000e+02
1183	2.86311e+02	1.18300e+03	9.84095e-01	2.84333e+02
1193	2.89670e+02	1.19300e+03	9.82279e-01	2.87667e+02
1203	2.93043e+02	1.20300e+03	9.80165e-01	2.91000e+02
1213	2.96397e+02	1.21300e+03	9.77630e-01	2.94333e+02
1223	2.99772e+02	1.22300e+03	9.74779e-01	2.97667e+02
1233	3.03129e+02	1.23300e+03	9.71823e-01	3.01000e+02
1243	3.06462e+02	1.24300e+03	9.68465e-01	3.04333e+02
1253	3.09809e+02	1.25300e+03	9.64869e-01	3.07667e+02
1263	3.13171e+02	1.26300e+03	9.61033e-01	3.11000e+02
1273	3.16536e+02	1.27300e+03	9.56972e-01	3.14333e+02
1283	3.19926e+02	1.28300e+03	9.52806e-01	3.17667e+02
1293	3.23303e+02	1.29300e+03	9.48660e-01	3.21000e+02
1303	3.26665e+02	1.30300e+03	9.44008e-01	3.24333e+02
1313	3.30024e+02	1.31300e+03	9.38887e-01	3.27667e+02
1323	3.33357e+02	1.32300e+03	9.32731e-01	3.31000e+02
1333	3.36698e+02	1.33300e+03	9.25436e-01	3.34333e+02
1343	3.40039e+02	1.34300e+03	9.16367e-01	3.37667e+02
1353	3.43368e+02	1.35300e+03	9.05014e-01	3.41000e+02
1363	3.46707e+02	1.36300e+03	8.90921e-01	3.44333e+02
1373	3.50044e+02	1.37300e+03	8.73248e-01	3.47667e+02
1383	3.53391e+02	1.38300e+03	8.51553e-01	3.51000e+02
1393	3.56749e+02	1.39300e+03	8.25228e-01	3.54333e+02
1403	3.60102e+02	1.40300e+03	7.93510e-01	3.57667e+02
1413	3.63462e+02	1.41300e+03	7.55548e-01	3.61000e+02
1423	3.66796e+02	1.42300e+03	7.10692e-01	3.64333e+02
1433	3.70114e+02	1.43300e+03	6.59486e-01	3.67667e+02
1443	3.73441e+02	1.44300e+03	6.03085e-01	3.71000e+02
1453	3.76777e+02	1.45300e+03	5.41409e-01	3.74333e+02
1463	3.80093e+02	1.46300e+03	4.78261e-01	3.77667e+02
1473	3.83420e+02	1.47300e+03	4.14585e-01	3.81000e+02
1483	3.86736e+02	1.48300e+03	3.49812e-01	3.84333e+02
1493	3.90073e+02	1.49300e+03	2.82051e-01	3.87667e+02
1503	3.93415e+02	1.50300e+03	2.20050e-01	3.91000e+02
1513	3.96798e+02	1.51300e+03	1.66988e-01	3.94333e+02
1523	4.00147e+02	1.52300e+03	1.23311e-01	3.97667e+02
1533	4.03503e+02	1.53300e+03	8.89792e-02	4.01000e+02
1543	4.06885e+02	1.54300e+03	6.25052e-02	4.04333e+02
1553	4.10221e+02	1.55300e+03	4.31082e-02	4.07667e+02
1563	4.13554e+02	1.56300e+03	2.89776e-02	4.11000e+02
1573	4.16927e+02	1.57300e+03	1.97931e-02	4.14333e+02
1583	4.20312e+02	1.58300e+03	1.31867e-02	4.17667e+02
1593	4.23711e+02	1.59300e+03	8.68220e-03	4.21000e+02
1603	4.27056e+02	1.60300e+03	5.53666e-03	4.24333e+02
1613	4.30357e+02	1.61300e+03	3.23957e-03	4.27667e+02
1623	4.33656e+02	1.62300e+03	1.88159e-03	4.31000e+02
1633	4.36968e+02	1.63300e+03	5.98409e-04	4.34333e+02
1643	4.40267e+02	1.64300e+03	-1.94901e-04	4.37667e+02
1653	4.43607e+02	1.65300e+03	-7.47857e-04	4.41000e+02
1663	4.46931e+02	1.66300e+03	-1.08117e-03	4.44333e+02
1673	4.50227e+02	1.67300e+03	-1.46973e-03	4.47667e+02
1683	4.53527e+02	1.68300e+03	-1.56056e-03	4.51000e+02
1693	4.56863e+02	1.69300e+03	-1.70363e-03	4.54333e+02
1703	4.60148e+02	1.70300e+03	-1.66594e-03	4.57667e+02
1713	4.63444e+02	1.71300e+03	-1.84171e-03	4.61000e+02
1723	4.66537e+02	1.72300e+03	-1.85697e-03	4.64333e+02
1733	4.69782e+02	1.73300e+03	-1.96586e-03	4.67667e+02
1743	4.73029e+02	1.74300e+03	-1.94491e-03	4.71000e+02
1753	4.76269e+02	1.75300e+03	-2.14295e-03	4.74333e+02
1763	4.79511e+02	1.76300e+03	-2.23850e-03	4.77667e+02
1773	4.82767e+02	1.77300e+03	-2.28856e-03	4.81000e+02
1783	4.86029e+02	1.78300e+03	-2.47692e-03	4.84333e+02
1793	4.89289e+02	1.79300e+03	-2.32773e-03	4.87667e+02
1803	4.92561e+02	1.80300e+03	-2.37568e-03	4.91000e+02
1813	4.95832e+02	1.81300e+03	-2.29017e-03	4.94333e+02
1823	4.99083e+02	1.82300e+03	-2.56302e-03	4.97667e+02
1833	5.02346e+02	1.83300e+03	-2.27526e-03	5.01000e+02
1843	5.05611e+02	1.84300e+03	-2.49096e-03	5.04333e+02
1853	5.08874e+02	1.85300e+03	-2.64061e-03	5.07667e+02
1863	5.12158e+02	1.86300e+03	-2.73898e-03	5.11000e+02
1873	5.15430e+02	1.87300e+03	-2.65276e-03	5.14333e+02
1883	5.18707e+02	1.88300e+03	-2.66839e-03	5.17667e+02
1893	5.21985e+02	1.89300e+03	-2.65620e-03	5.21000e+02
1903	5.25279e+02	1.90300e+03	-2.71401e-03	5.24333e+02
1913	5.28575e+02	1.91300e+03	-2.70245e-03	5.27667e+02
1923	5.31867e+02	1.92300e+03	-2.76087e-03	5.31000e+02
1933	5.35148e+02	1.93300e+03	-2.69793e-03	5.34333e+02
1943	5.38432e+02	1.94300e+03	-2.73897e-03	5.37667e+02
1953	5.41713e+02	1.95300e+03	-2.72362e-03	5.41000e+02
1963	5.44999e+02	1.96300e+03	-2.77595e-03	5.44333e+02
1973	5.48286e+02	1.97300e+03	-2.76658e-03	5.47667e+02
1983	5.51565e+02	1.98300e+03	-2.77893e-03	5.51000e+02
1993	5.54837e+02	1.99300e+03	-3.03984e-03	5.54333e+02
2003	5.58139e+02	2.00300e+03	-2.86085e-03	5.57667e+02
2013	5.61433e+02	2.01300e+03	-2.97614e-03	5.61000e+02
2023	5.64725e+02	2.02300e+03	-2.84086e-03	5.64333e+02
2033	5.68003e+02	2.03300e+03	-2.79353e-03	5.67667e+02
2043	5.71318e+02	2.04300e+03	-3.12508e-03	5.71000e+02
2053	5.74614e+02	2.05300e+03	-2.93833e-03	5.74333e+02
2063	5.77910e+02	2.06300e+03	-2.96236e-03	5.77667e+02
2073	5.81216e+02	2.07300e+03	-3.03532e-03	5.81000e+02
2083	5.84519e+02	2.08300e+03	-3.01679e-03	5.84333e+02
2093	5.87827e+02	2.09300e+03	-2.98175e-03	5.87667e+02
2103	5.91118e+02	2.10300e+03	-2.90949e-03	5.91000e+02
2113	5.94417e+02	2.11300e+03	-3.06339e-03	5.94333e+02
2123	5.97713e+02	2.12300e+03	-3.13912e-03	5.97667e+02
2133	6.01007e+02	2.13300e+03	-2.92888e-03	6.01000e+02
2143	6.04296e+02	2.14300e+03	-3.04723e-03	6.04333e+02
2153	6.07608e+02	2.15300e+03	-3.25617e-03	6.07667e+02
2163	6.10911e+02	2.16300e+03	-3.03164e-03	6.11000e+02
2173	6.14216e+02	2.17300e+03	-3.03986e-03	6.14333e+02
2183	6.17521e+02	2.18300e+03	-3.09757e-03	6.17667e+02
2193	6.20831e+02	2.19300e+03	-2.99169e-03	6.21000e+02
2203	6.24148e+02	2.20300e+03	-3.03075e-03	6.24333e+02
2213	6.27465e+02	2.21300e+03	-3.10506e-03	6.27667e+02
2223	6.30784e+02	2.22300e+03	-3.04847e-03	6.31000e+02
2233	6.34097e+02	2.23300e+03	-2.80525e-03	6.34333e+02
2243	6.37418e+02	2.24300e+03	-3.54462e-03	6.37667e+02
2253	6.40730e+02	2.25300e+03	-3.29298e-03	6.41000e+02
2263	6.44055e+02	2.26300e+03	-3.24014e-03	6.44333e+02
2273	6.47365e+02	2.27300e+03	-3.27420e-03	6.47667e+02
2283	6.50681e+02	2.28300e+03	-3.35096e-03	6.51000e+02
2293	6.53989e+02	2.29300e+03	-3.26735e-03	6.54333e+02
2303	6.57301e+02	2.30300e+03	-3.19730e-03	6.57667e+02
2313	6.60607e+02	2.31300e+03	-3.10840e-03	6.61000e+02
2323	6.63916e+02	2.32300e+03	-3.05475e-03	6.64333e+02
2333	6.67228e+02	2.33300e+03	-3.21409e-03	6.67667e+02
2343	6.70541e+02	2.34300e+03	-3.20104e-03	6.71000e+02
2353	6.73864e+02	2.35300e+03	-3.30337e-03	6.74333e+02
2363	6.77185e+02	2.36300e+03	-3.25897e-03	6.77667e+02
2373	6.80513e+02	2.37300e+03	-3.35781e-03	6.81000e+02
2383	6.83843e+02	2.38300e+03	-3.43609e-03	6.84333e+02
2393	6.87173e+02	2.39300e+03	-3.28604e-03	6.87667e+02
2403	6.90505e+02	2.40300e+03	-3.37340e-03	6.91000e+02
2413	6.92795e+02	2.41300e+03	-3.29062e-03	6.94333e+02
2423	6.94668e+02	2.42300e+03	-3.34785e-03	6.97667e+02
2430	6.95669e+02	2.43000e+03	-3.35224e-03	7.00000e+02

File: tga_dynamic_n2_dyn20_piece_1mg_r3.txt
index	ts	t	weight	tr
[#]	[°C]	[s]	[mg]	[°C]
723	1.31277e+02	7.23000e+02	9.81419e-01	1.31000e+02
733	1.34638e+02	7.33000e+02	9.81411e-01	1.34333e+02
743	1.38007e+02	7.43000e+02	9.81300e-01	1.37667e+02
753	1.41365e+02	7.53000e+02	9.81232e-01	1.41000e+02
763	1.44737e+02	7.63000e+02	9.81377e-01	1.44333e+02
773	1.48108e+02	7.73000e+02	9.81282e-01	1.47667e+02
783	1.51471e+02	7.83000e+02	9.81374e-01	1.51000e+02
793	1.54848e+02	7.93000e+02	9.80961e-01	1.54333e+02
803	1.58240e+02	8.03000e+02	9.81097e-01	1.57667e+02
813	1.61605e+02	8.13000e+02	9.81132e-01	1.61000e+02
823	1.64991e+02	8.23000e+02	9.81182e-01	1.64333e+02
833	1.68372e+02	8.33000e+02	9.81105e-01	1.67667e+02
843	1.71758e+02	8.43000e+02	9.81110e-01	1.71000e+02
853	1.75140e+02	8.53000e+02	9.81043e-01	1.74333e+02
863	1.78513e+02	8.63000e+02	9.80932e-01	1.77667e+02
873	1.81883e+02	8.73000e+02	9.80612e-01	1.81000e+02
883	1.85296e+02	8.83000e+02	9.80307e-01	1.84333e+02
893	1.88679e+02	8.93000e+02	9.79780e-01	1.87667e+02
903	1.92049e+02	9.03000e+02	9.79228e-01	1.91000e+02
913	1.95442e+02	9.13000e+02	9.78644e-01	1.94333e+02
923	1.98824e+02	9.23000e+02	9.77818e-01	1.97667e+02
933	2.02207e+02	9.33000e+02	9.76705e-01	2.01000e+02
943	2.05557e+02	9.43000e+02	9.75656e-01	2.04333e+02
953	2.08945e+02	9.53000e+02	9.74150e-01	2.07667e+02
963	2.12336e+02	9.63000e+02	9.73248e-01	2.11000e+02
973	2.15686e+02	9.73000e+02	9.72125e-01	2.14333e+02
983	2.19025e+02	9.83000e+02	9.71075e-01	2.17667e+02
993	2.22381e+02	9.93000e+02	9.69902e-01	2.21000e+02
1003	2.25732e+02	1.00300e+03	9.68763e-01	2.24333e+02
1013	2.29093e+02	1.01300e+03	9.67334e-01	2.27667e+02
1023	2.32457e+02	1.02300e+03	9.65990e-01	2.31000e+02
1033	2.35841e+02	1.03300e+03	9.64770e-01	2.34333e+02
1043	2.39201e+02	1.04300e+03	9.63488e-01	2.37667e+02
1053	2.42586e+02	1.05300e+03	9.62053e-01	2.41000e+02
1063	2.45981e+02	1.06300e+03	9.60798e-01	2.44333e+02
1073	2.49362e+02	1.07300e+03	9.59375e-01	2.47667e+02
1083	2.52793e+02	1.08300e+03	9.57860e-01	2.51000e+02
1093	2.56245e+02	1.09300e+03	9.56401e-01	2.54333e+02
1103	2.59640e+02	1.10300e+03	9.55311e-01	2.57667e+02
1113	2.63003e+02	1.11300e+03	9.53487e-01	2.61000e+02
1123	2.66375e+02	1.12300e+03	9.52335e-01	2.64333e+02
1133	2.69717e+02	1.13300e+03	9.50796e-01	2.67667e+02
1143	2.73089e+02	1.14300e+03	9.49364e-01	2.71000e+02
1153	2.76457e+02	1.15300e+03	9.48153e-01	2.74333e+02
1163	2.79837e+02	1.16300e+03	9.46422e-01	2.77667e+02
1173	2.83199e+02	1.17300e+03	9.44960e-01	2.81000e+02
1183	2.86552e+02	1.18300e+03	9.43145e-01	2.84333e+02
1193	2.89906e+02	1.19300e+03	9.41117e-01	2.87667e+02
1203	2.93310e+02	1.20300e+03	9.39370e-01	2.91000e+02
1213	2.96796e+02	1.21300e+03	9.36839e-01	2.94333e+02
1223	3.00184e+02	1.22300e+03	9.34193e-01	2.97667e+02
1233	3.03574e+02	1.23300e+03	9.31233e-01	3.01000e+02
1243	3.06977e+02	1.24300e+03	9.27893e-01	3.04333e+02
1253	3.10398e+02	1.25300e+03	9.24450e-01	3.07667e+02
1263	3.13803e+02	1.26300e+03	9.20488e-01	3.11000e+02
1273	3.17305e+02	1.27300e+03	9.16583e-01	3.14333e+02
1283	3.20836e+02	1.28300e+03	9.12643e-01	3.17667e+02
1293	3.24183e+02	1.29300e+03	9.08597e-01	3.21000e+02
1303	3.27599e+02	1.30300e+03	9.04279e-01	3.24333e+02
1313	3.31257e+02	1.31300e+03	8.99369e-01	3.27667e+02
1323	3.34658e+02	1.32300e+03	8.93761e-01	3.31000e+02
1333	3.38033e+02	1.33300e+03	8.86924e-01	3.34333e+02
1343	3.41414e+02	1.34300e+03	8.78475e-01	3.37667e+02
1353	3.44795e+02	1.35300e+03	8.68046e-01	3.41000e+02
1363	3.48217e+02	1.36300e+03	8.55017e-01	3.44333e+02
1373	3.51625e+02	1.37300e+03	8.38803e-01	3.47667e+02
1383	3.55094e+02	1.38300e+03	8.18979e-01	3.51000e+02
1393	3.58277e+02	1.39300e+03	7.93759e-01	3.54333e+02
1403	3.61488e+02	1.40300e+03	7.61563e-01	3.57667e+02
1413	3.64591e+02	1.41300e+03	7.24098e-01	3.61000e+02
1423	3.67823e+02	1.42300e+03	6.80507e-01	3.64333e+02
1433	3.71055e+02	1.43300e+03	6.29851e-01	3.67667e+02
1443	3.74309e+02	1.44300e+03	5.73218e-01	3.71000e+02
1453	3.77590e+02	1.45300e+03	5.14201e-01	3.74333e+02
1463	3.80898e+02	1.46300e+03	4.53545e-01	3.77667e+02
1473	3.84201e+02	1.47300e+03	3.91991e-01	3.81000e+02
1483	3.87532e+02	1.48300e+03	3.31297e-01	3.84333e+02
1493	3.90887e+02	1.49300e+03	2.71905e-01	3.87667e+02
1503	3.94229e+02	1.50300e+03	2.17209e-01	3.91000e+02
1513	3.97595e+02	1.51300e+03	1.70122e-01	3.94333e+02
1523	4.00970e+02	1.52300e+03	1.30981e-01	3.97667e+02
1533	4.04403e+02	1.53300e+03	1.00177e-01	4.01000e+02
1543	4.07767e+02	1.54300e+03	7.66257e-02	4.04333e+02
1553	4.11248e+02	1.55300e+03	5.93489e-02	4.07667e+02
1563	4.14686e+02	1.56300e+03	4.71106e-02	4.11000e+02
1573	4.18013e+02	1.57300e+03	3.81822e-02	4.14333e+02
1583	4.21317e+02	1.58300e+03	3.24127e-02	4.17667e+02
1593	4.24601e+02	1.59300e+03	2.83195e-02	4.21000e+02
1603	4.27878e+02	1.60300e+03	2.53648e-02	4.24333e+02
1613	4.31123e+02	1.61300e+03	2.29615e-02	4.27667e+02
1623	4.34380e+02	1.62300e+03	2.13045e-02	4.31000e+02
1633	4.37657e+02	1.63300e+03	2.00470e-02	4.34333e+02
1643	4.40881e+02	1.64300e+03	1.89952e-02	4.37667e+02
1653	4.44123e+02	1.65300e+03	1.82267e-02	4.41000e+02
1663	4.47356e+02	1.66300e+03	1.80312e-02	4.44333e+02
1673	4.50594e+02	1.67300e+03	1.77373e-02	4.47667e+02
1683	4.53835e+02	1.68300e+03	1.76498e-02	4.51000e+02
1693	4.57110e+02	1.69300e+03	1.75245e-02	4.54333e+02
1703	4.60388e+02	1.70300e+03	1.74749e-02	4.57667e+02
1713	4.63661e+02	1.71300e+03	1.73965e-02	4.61000e+02
1723	4.66791e+02	1.72300e+03	1.73665e-02	4.64333e+02
1733	4.69970e+02	1.73300e+03	1.72854e-02	4.67667e+02
1743	4.73224e+02	1.74300e+03	1.71640e-02	4.71000e+02
1753	4.76496e+02	1.75300e+03	1.71295e-02	4.74333e+02
1763	4.79783e+02	1.76300e+03	1.69860e-02	4.77667e+02
1773	4.83064e+02	1.77300e+03	1.68370e-02	4.81000e+02
1783	4.86337e+02	1.78300e+03	1.68690e-02	4.84333e+02
1793	4.89614e+02	1.79300e+03	1.69522e-02	4.87667e+02
1803	4.92859e+02	1.80300e+03	1.69839e-02	4.91000e+02
1813	4.96118e+02	1.81300e+03	1.69182e-02	4.94333e+02
1823	4.99426e+02	1.82300e+03	1.68467e-02	4.97667e+02
1833	5.02689e+02	1.83300e+03	1.68459e-02	5.01000e+02
1843	5.05947e+02	1.84300e+03	1.68043e-02	5.04333e+02
1853	5.09216e+02	1.85300e+03	1.67443e-02	5.07667e+02
1863	5.12491e+02	1.86300e+03	1.66373e-02	5.11000e+02
1873	5.15747e+02	1.87300e+03	1.66119e-02	5.14333e+02
1883	5.18973e+02	1.88300e+03	1.66953e-02	5.17667e+02
1893	5.22228e+02	1.89300e+03	1.65909e-02	5.21000e+02
1903	5.25481e+02	1.90300e+03	1.66688e-02	5.24333e+02
1913	5.28736e+02	1.91300e+03	1.66294e-02	5.27667e+02
1923	5.31996e+02	1.92300e+03	1.66027e-02	5.31000e+02
1933	5.35282e+02	1.93300e+03	1.65356e-02	5.34333e+02
1943	5.38560e+02	1.94300e+03	1.65803e-02	5.37667e+02
1953	5.41866e+02	1.95300e+03	1.66192e-02	5.41000e+02
1963	5.45206e+02	1.96300e+03	1.66167e-02	5.44333e+02
1973	5.48498e+02	1.97300e+03	1.64569e-02	5.47667e+02
1983	5.51800e+02	1.98300e+03	1.65245e-02	5.51000e+02
1993	5.55094e+02	1.99300e+03	1.64080e-02	5.54333e+02
2003	5.58380e+02	2.00300e+03	1.63474e-02	5.57667e+02
2013	5.61649e+02	2.01300e+03	1.63908e-02	5.61000e+02
2023	5.64930e+02	2.02300e+03	1.64307e-02	5.64333e+02
2033	5.68221e+02	2.03300e+03	1.66115e-02	5.67667e+02
2043	5.71522e+02	2.04300e+03	1.66659e-02	5.71000e+02
2053	5.74795e+02	2.05300e+03	1.65858e-02	5.74333e+02
2063	5.78091e+02	2.06300e+03	1.66015e-02	5.77667e+02
2073	5.81404e+02	2.07300e+03	1.64471e-02	5.81000e+02
2083	5.84721e+02	2.08300e+03	1.64724e-02	5.84333e+02
2093	5.88038e+02	2.09300e+03	1.64890e-02	5.87667e+02
2103	5.91334e+02	2.10300e+03	1.63952e-02	5.91000e+02
2113	5.94640e+02	2.11300e+03	1.62697e-02	5.94333e+02
2123	5.97990e+02	2.12300e+03	1.63252e-02	5.97667e+02
2133	6.01313e+02	2.13300e+03	1.64346e-02	6.01000e+02
2143	6.04621e+02	2.14300e+03	1.63900e-02	6.04333e+02
2153	6.07920e+02	2.15300e+03	1.63200e-02	6.07667e+02
2163	6.11219e+02	2.16300e+03	1.62939e-02	6.11000e+02
2173	6.14522e+02	2.17300e+03	1.63938e-02	6.14333e+02
2183	6.17796e+02	2.18300e+03	1.63907e-02	6.17667e+02
2193	6.21070e+02	2.19300e+03	1.62171e-02	6.21000e+02
2203	6.24344e+02	2.20300e+03	1.63753e-02	6.24333e+02
2213	6.27625e+02	2.21300e+03	1.62318e-02	6.27667e+02
2223	6.30923e+02	2.22300e+03	1.62208e-02	6.31000e+02
2233	6.34218e+02	2.23300e+03	1.63097e-02	6.34333e+02
2243	6.37512e+02	2.24300e+03	1.62080e-02	6.37667e+02
2253	6.40826e+02	2.25300e+03	1.61598e-02	6.41000e+02
2263	6.44129e+02	2.26300e+03	1.61535e-02	6.44333e+02
2273	6.47446e+02	2.27300e+03	1.60428e-02	6.47667e+02
2283	6.50763e+02	2.28300e+03	1.63325e-02	6.51000e+02
2293	6.54081e+02	2.29300e+03	1.62727e-02	6.54333e+02
2303	6.57372e+02	2.30300e+03	1.64367e-02	6.57667e+02
2313	6.60666e+02	2.31300e+03	1.62557e-02	6.61000e+02
2323	6.63977e+02	2.32300e+03	1.61752e-02	6.64333e+02
2333	6.67288e+02	2.33300e+03	1.61918e-02	6.67667e+02
2343	6.70595e+02	2.34300e+03	1.62267e-02	6.71000e+02
2353	6.73933e+02	2.35300e+03	1.61211e-02	6.74333e+02
2363	6.77259e+02	2.36300e+03	1.61434e-02	6.77667e+02
2373	6.80588e+02	2.37300e+03	1.59325e-02	6.81000e+02
2383	6.83922e+02	2.38300e+03	1.59977e-02	6.84333e+02
2393	6.87271e+02	2.39300e+03	1.57228e-02	6.87667e+02
2403	6.90618e+02	2.40300e+03	1.59501e-02	6.91000e+02
2413	6.92937e+02	2.41300e+03	1.61228e-02	6.94333e+02
2423	6.94824e+02	2.42300e+03	1.58844e-02	6.97667e+02
2430	6.95838e+02	2.43000e+03	1.59230e-02	7.00000e+02